"Time (s)";"Acceleration x (m/s^2)";"Acceleration y (m/s^2)";"Acceleration z (m/s^2)"
3.394205100E-2;3.951629877E0;5.725733280E0;9.480440140E0
5.060804100E-2;3.889979124E0;5.504269600E0;1.003649330E1
6.727403000E-2;3.925293684E0;5.589263916E0;1.033217716E1
8.394002000E-2;4.361038208E0;5.399523258E0;1.015799904E1
1.006060100E-1;4.596268654E0;4.886565685E0;9.112331390E0
1.172719990E-1;4.811747074E0;4.425682068E0;8.664017677E0
1.339379890E-1;3.676296711E0;4.461595058E0;9.243413925E0
1.506039780E-1;2.867655039E0;3.994127035E0;1.021186924E1
1.672699680E-1;2.826953650E0;3.160944700E0;1.172141266E1
1.839359580E-1;2.671929121E0;2.661753654E0;1.270243740E1
2.006019470E-1;2.713229179E0;2.179920673E0;1.220743561E1
2.172679370E-1;2.609679937E0;1.756146908E0;1.095227528E1
2.339339260E-1;2.601898670E0;1.662773132E0;9.648034096E0
2.505999160E-1;3.003525972E0;1.694496274E0;8.571242332E0
2.672659050E-1;3.060986757E0;1.684320927E0;7.548917770E0
2.839318950E-1;2.865260839E0;1.651999116E0;7.136516571E0
3.005978850E-1;2.570774078E0;1.693299174E0;7.598597527E0
3.172638740E-1;2.136226416E0;1.727416515E0;7.965508938E0
3.339298640E-1;1.680729628E0;1.871667147E0;7.837419033E0
3.505958530E-1;1.301248670E0;2.021304846E0;7.709329605E0
3.672618430E-1;8.313865662E-1;2.132635117E0;7.492654324E0
3.839278330E-1;4.686649740E-1;2.339733601E0;7.083245754E0
4.005938220E-1;2.657563984E-1;2.406172752E0;7.092822552E0
4.172598120E-1;3.339911401E-1;2.409165382E0;7.459733963E0
4.339258010E-1;2.430114746E-1;2.673126221E0;7.342418194E0
4.505917910E-1;5.033808947E-1;3.016694069E0;7.028179169E0
4.672577800E-1;9.564836025E-1;3.301005602E0;7.179013729E0
4.839237700E-1;1.294066072E0;3.590703964E0;7.488464355E0
5.005897600E-1;1.038484931E0;3.826532841E0;7.571064472E0
5.172557490E-1;7.900865674E-1;3.885789394E0;7.284358501E0
5.339217390E-1;1.190516829E0;4.114435673E0;7.666234016E0
5.505877280E-1;1.698087573E0;4.350264549E0;8.219893456E0
5.672537180E-1;2.047641039E0;4.466981888E0;8.859743118E0
5.839197080E-1;2.352901697E0;4.652532578E0;8.972270966E0
6.005856970E-1;2.059612036E0;4.544194698E0;8.139088631E0
6.172516870E-1;1.889025092E0;4.312555790E0;9.004592896E0
6.339176760E-1;1.851915002E0;4.483142853E0;1.006761837E1
6.505836660E-1;1.566406488E0;4.707000732E0;9.871891975E0
6.672496550E-1;1.445499301E0;4.477755547E0;1.007360363E1
6.839156450E-1;9.612720013E-1;3.940257549E0;1.065419769E1
7.005816350E-1;2.914940715E-1;3.811569214E0;1.116835213E1
7.172476240E-1;1.197100878E-1;3.649960518E0;1.160289955E1
7.339136140E-1;5.847837925E-1;4.048594952E0;1.215655899E1
7.505796030E-1;6.901286244E-1;3.866635799E0;1.217571259E1
7.672455930E-1;8.762778044E-1;3.632602453E0;1.194646835E1
7.839115830E-1;6.296750307E-1;3.354276657E0;1.161666679E1
8.005775720E-1;8.044517636E-1;2.649184227E0;1.171482849E1
8.172435620E-1;4.417302012E-1;1.878251195E0;1.216314316E1
8.339095510E-1;7.667431235E-1;1.145625472E0;1.264198399E1
8.505755410E-1;1.307832718E0;1.021126986E0;1.284489250E1
8.672415300E-1;1.116296530E0;1.413177609E0;1.187224770E1
8.839075200E-1;7.206547260E-1;1.808819413E0;1.006522369E1
9.005735100E-1;4.967968464E-1;2.063801765E0;8.614337921E0
9.172394990E-1;-1.442506462E-1;2.300229311E0;7.762600422E0
9.339054890E-1;-2.543839216E-1;2.675520420E0;7.985261440E0
9.505714780E-1;1.981201917E-1;3.071162224E0;7.968502045E0
9.672374680E-1;5.524620414E-1;2.829347849E0;7.274183273E0
9.839034580E-1;6.410474777E-1;2.109890223E0;6.953958988E0
1.000569447E0;7.511807680E-1;1.674744129E0;6.956353188E0
1.017235437E0;1.010353088E0;1.749562860E0;7.310096264E0
1.033901426E0;1.337161660E0;2.249352455E0;7.858967304E0
1.050567416E0;1.002571940E0;2.386420488E0;7.449558735E0
1.067233405E0;6.637924314E-1;2.719214678E0;7.291541100E0
1.083899395E0;1.035492182E0;3.558382273E0;7.072471619E0
1.100565385E0;1.307234168E0;3.415328741E0;5.674856663E0
1.117231374E0;4.542997777E-1;3.325546265E0;5.296572685E0
1.133897364E0;-5.955576897E-1;3.596689463E0;7.340622425E0
1.150563353E0;-7.206547260E-1;2.769492865E0;9.042900085E0
1.167229343E0;-1.204283476E0;2.247556925E0;9.983222961E0
1.183895333E0;-1.987785935E0;2.542043686E0;9.648633003E0
1.200561322E0;-1.690904975E0;2.955043554E0;8.705916405E0
1.217227312E0;-1.277905107E0;3.468001127E0;8.170213699E0
1.233893301E0;-9.038111567E-1;3.825934410E0;8.840589523E0
1.250559291E0;-1.238999367E-1;4.088697910E0;9.903614998E0
1.267225280E0;2.561795712E-1;4.393958569E0;1.024119759E1
1.283891270E0;2.334346622E-1;4.472368717E0;1.007839203E1
1.300557260E0;1.777694821E-1;4.175487995E0;1.011969185E1
1.317223249E0;9.157821536E-2;3.833117008E0;1.093012905E1
1.333889239E0;-5.506663769E-2;3.796006680E0;1.212244129E1
1.350555228E0;4.034229815E-1;4.161122322E0;1.237502956E1
1.367221218E0;9.618705511E-1;4.182670593E0;1.184531307E1
1.383887208E0;9.660604000E-1;3.812167645E0;1.142572880E1
1.400553197E0;5.554547906E-1;3.299808502E0;1.153646088E1
1.417219187E0;3.609259129E-1;2.583942175E0;1.202068806E1
1.433885176E0;4.531026781E-1;1.867477298E0;1.262043571E1
1.450551166E0;8.894459605E-1;1.388636947E0;1.323933697E1
1.467217155E0;1.328781962E0;1.069609642E0;1.312740803E1
1.483883145E0;1.590348482E0;1.118092179E0;1.184650993E1
1.500549135E0;1.587355733E0;1.352723956E0;1.003769016E1
1.517215124E0;1.693897724E0;1.500565886E0;8.472481728E0
1.533881114E0;1.307832718E0;1.605312228E0;7.485471725E0
1.550547103E0;1.068412542E0;1.267131209E0;7.019799232E0
1.567213093E0;8.631097078E-1;1.207276225E0;7.126341343E0
1.583879083E0;8.421604633E-1;1.237203717E0;7.759009361E0
1.600545072E0;5.345055461E-1;1.267131209E0;7.821258545E0
1.617211062E0;1.939303428E-1;1.429338455E0;7.771578789E0
1.633877051E0;-1.556231081E-2;1.720832467E0;7.963114738E0
1.650543041E0;-1.807622313E-1;1.954267144E0;8.118139267E0
1.667209030E0;-1.448491961E-1;2.288856745E0;7.834426403E0
1.683875020E0;-1.825578809E-1;2.674921751E0;7.338826656E0
1.700541010E0;-9.397241473E-2;2.872443438E0;6.984484673E0
1.717206999E0;-1.137245819E-2;2.980781078E0;6.919841290E0
1.733872989E0;2.873041928E-1;3.036446333E0;7.258621216E0
1.750538978E0;3.232172430E-1;2.962824583E0;7.577648163E0
1.767204968E0;3.782838583E-1;2.883217335E0;8.009801865E0
1.783870958E0;6.494272351E-1;3.005920172E0;8.345588684E0
1.800536947E0;8.577227592E-1;3.126228809E0;8.372523308E0
1.817202937E0;8.720879555E-1;3.304596901E0;8.645462036E0
1.833868926E0;6.895300746E-1;3.465008497E0;9.125499725E0
1.850534916E0;6.368576288E-1;3.711611271E0;9.606734276E0
1.867200905E0;6.494272351E-1;4.114435673E0;9.789292336E0
1.883866895E0;4.572925270E-1;4.488529682E0;9.686940193E0
1.900532885E0;1.490390599E-1;4.480748653E0;9.503783226E0
1.917198874E0;4.070143029E-2;4.477755547E0;9.482235909E0
1.933864864E0;-4.309562966E-2;4.320935726E0;9.951498985E0
1.950530853E0;-3.471592441E-2;3.978564739E0;1.045128918E1
1.967196843E0;-4.788403213E-2;3.912125587E0;1.092175007E1
1.983862833E0;7.481880486E-2;4.122216702E0;1.142393303E1
2.000528822E0;-3.387795389E-1;4.174889088E0;1.187763500E1
2.017194812E0;-7.948749661E-1;4.057573318E0;1.234270859E1
2.033860801E0;-9.259575009E-1;3.885789394E0;1.326687050E1
2.050526791E0;-8.960300088E-1;3.350685358E0;1.410962963E1
2.067192780E0;-6.470330358E-1;2.665943623E0;1.419881344E1
2.083858770E0;-3.292027414E-1;2.082955360E0;1.388517284E1
2.100524760E0;-3.645172119E-1;2.003946781E0;1.284010410E1
2.117190749E0;-1.939303428E-1;2.010530949E0;1.156279755E1
2.133856739E0;-2.687491477E-1;2.167351007E0;1.008677197E1
2.150522728E0;-5.099649429E-1;2.516904593E0;8.482058525E0
2.167188718E0;-5.111620426E-1;2.788646460E0;7.407061577E0
2.183854708E0;-7.362170219E-1;2.568978310E0;6.798335552E0
2.200520697E0;-1.127070427E0;2.792237759E0;6.721721172E0
2.217186687E0;-1.116895080E0;3.048417330E0;6.818686485E0
2.233852676E0;-1.186326981E0;2.473809004E0;6.995258808E0
2.250518666E0;-6.392518282E-1;2.242169857E0;7.061697960E0
2.267184655E0;-5.734112859E-1;2.692279816E0;7.025186539E0
2.283850645E0;-7.302315533E-2;2.681505919E0;6.839036942E0
2.300516635E0;3.770867735E-2;2.875436306E0;6.737283707E0
2.317182624E0;-1.101332754E-1;3.426701069E0;6.947973251E0
2.333848614E0;-2.202665508E-1;3.754108191E0;6.988674641E0
2.350514603E0;-1.939303428E-1;3.814561844E0;6.670246124E0
2.367180593E0;1.358709484E-1;3.941454649E0;6.369174957E0
2.383846583E0;4.159925580E-1;4.009090900E0;6.315904140E0
2.400512572E0;4.082113802E-1;3.909132719E0;6.539163589E0
2.417178562E0;3.028665185E-1;4.036025524E0;7.281964302E0
2.433844551E0;3.429693878E-1;4.251503468E0;7.814674377E0
2.450510541E0;4.513070285E-1;4.527435303E0;8.054693222E0
2.467176530E0;4.860229492E-1;4.912901878E0;8.257601738E0
2.483842520E0;4.531026781E-1;5.173271179E0;8.415019989E0
2.500508510E0;6.590040326E-1;5.321712017E0;8.412626266E0
2.517174499E0;8.481459618E-1;5.467758179E0;8.703521729E0
2.533840489E0;8.900445104E-1;5.620986938E0;9.082404137E0
2.550506478E0;4.106055796E-1;6.030993938E0;9.552865028E0
2.567172468E0;1.556231081E-1;6.315305710E0;9.917980194E0
2.583838458E0;4.267664552E-1;6.286575317E0;1.031960773E1
2.600504447E0;9.349357486E-1;5.901707172E0;1.079126549E1
2.617170437E0;1.266532660E0;5.944204330E0;1.099058247E1
2.633836426E0;1.531690478E0;6.274005413E0;1.048600483E1
2.650502416E0;1.814206362E0;6.121375084E0;9.893440247E0
2.667168405E0;1.751957059E0;5.662287235E0;1.004487324E1
2.683834395E0;1.641823769E0;5.052364349E0;1.057997704E1
2.700500385E0;1.583165884E0;4.256890774E0;1.121204662E1
2.717166374E0;1.582567334E0;4.039018154E0;1.173278522E1
2.733832364E0;1.553238392E0;3.913921118E0;1.196083355E1
2.750498353E0;1.438316703E0;3.716998100E0;1.142991924E1
2.767164343E0;1.577180386E0;3.672705412E0;1.028189945E1
2.783830333E0;1.700481772E0;3.617040157E0;9.051877975E0
2.800496322E0;1.743577361E0;3.408744574E0;8.139687538E0
2.817162312E0;1.803432465E0;3.434482336E0;7.449558735E0
2.833828301E0;1.683722377E0;3.481169224E0;7.097012520E0
2.850494291E0;1.662773132E0;3.381211281E0;6.655880928E0
2.867160280E0;2.281075716E0;3.510498285E0;6.822876453E0
2.883826270E0;2.216432333E0;3.208230257E0;7.324461460E0
2.900492260E0;1.933317900E0;2.955641985E0;7.858368397E0
2.917158249E0;1.851915002E0;3.019088268E0;7.991845131E0
2.933824239E0;1.584961534E0;3.206434727E0;7.572859764E0
2.950490228E0;1.280897856E0;3.566163540E0;6.906673431E0
2.967156218E0;1.154603720E0;3.827131510E0;6.329071999E0
2.983822208E0;1.351526856E0;3.804386616E0;6.396708488E0
3.000488197E0;1.062427044E0;4.030638695E0;6.347627163E0
3.017154187E0;7.595604658E-1;4.340687752E0;6.320094109E0
3.033820176E0;5.662286878E-1;4.522646904E0;6.196792603E0
3.050486166E0;8.325836658E-1;4.663905144E0;6.470330238E0
3.067152155E0;1.391629696E0;4.665102005E0;6.997054577E0
3.083818145E0;1.608903527E0;4.802170277E0;7.759009361E0
3.100484135E0;1.702875972E0;4.899135113E0;8.001421928E0
3.117150124E0;1.635239720E0;4.990114689E0;7.742848396E0
3.133816114E0;1.374271750E0;5.151124954E0;7.936180115E0
3.150482103E0;1.438915253E0;5.178059578E0;8.911218643E0
3.167148093E0;1.391031146E0;5.431845188E0;8.791508675E0
3.183814083E0;1.086967587E0;5.904101372E0;8.066663742E0
3.200480072E0;1.080982089E0;6.068702698E0;7.547122478E0
3.217146062E0;1.309628367E0;6.100425720E0;7.984064102E0
3.233812051E0;1.349731207E0;5.881955147E0;8.918401718E0
3.250478041E0;1.674145579E0;5.441421986E0;9.560047150E0
3.267144030E0;2.139817715E0;4.939238071E0;1.041597462E1
3.283810020E0;2.229600430E0;4.818929672E0;1.120965195E1
3.300476010E0;1.768117905E0;5.545569897E0;1.123000336E1
3.317141999E0;9.750386477E-1;5.987898350E0;1.103726959E1
3.333807989E0;-6.105214357E-2;6.154893875E0;1.121264553E1
3.350473978E0;-1.083376288E0;6.130353451E0;1.169866848E1
3.367139968E0;-1.388636947E0;5.258265495E0;1.172320843E1
3.383805958E0;-3.908534348E-1;3.876811028E0;1.184710884E1
3.400471947E0;9.876081944E-1;3.193266630E0;1.206438255E1
3.417137937E0;1.109712481E0;3.005920172E0;1.251568985E1
3.433803926E0;1.537676096E0;2.845508814E0;1.192791271E1
3.450469916E0;9.504981041E-1;2.702455282E0;1.050755310E1
3.467135905E0;1.759738177E-1;2.842515945E0;9.000402451E0
3.483801895E0;-2.825157940E-1;2.950255156E0;7.697957039E0
3.500467885E0;-5.853823423E-1;2.834136248E0;7.110779285E0
3.517133874E0;-8.547300100E-1;2.518101692E0;6.985083580E0
3.533799864E0;-9.522937536E-1;2.116474390E0;7.154473305E0
3.550465853E0;-7.517793179E-1;1.683123827E0;7.510012150E0
3.567131843E0;-8.487445116E-1;1.152209520E0;7.982268333E0
3.583797833E0;-9.331400990E-1;1.068412542E0;8.020575523E0
3.600463822E0;-9.744400978E-1;1.411980510E0;7.803301811E0
3.617129812E0;-1.592144072E-1;2.112883091E0;7.166444302E0
3.633795801E0;-1.035492271E-1;2.822165251E0;7.080253124E0
3.650461791E0;-5.650315881E-1;3.354875088E0;7.239467621E0
3.667127780E0;-1.077390742E-2;3.654748917E0;6.840234280E0
3.683793770E0;6.338648796E-1;3.970185041E0;6.259041786E0
3.700459760E0;3.711012751E-2;4.214393616E0;6.239888191E0
3.717125749E0;1.789665818E-1;4.028842926E0;6.654683590E0
3.733791739E0;3.471592441E-2;3.904344320E0;7.510012150E0
3.750457728E0;-1.155202314E-1;4.062960148E0;8.425794601E0
3.767123718E0;2.238578647E-1;4.327519417E0;8.850166321E0
3.783789708E0;5.386953950E-1;4.687847137E0;8.902240753E0
3.800455697E0;3.722983599E-1;4.862623692E0;9.222464561E0
3.817121687E0;1.133654475E0;5.207987309E0;9.212289810E0
3.833787676E0;2.085349798E0;5.480327606E0;9.082404137E0
3.850453666E0;2.781463861E0;5.656301498E0;8.786121368E0
3.867119655E0;1.919551253E0;5.476137638E0;8.092401505E0
3.883785645E0;1.763928056E0;4.901529312E0;9.548076630E0
3.900451635E0;1.231218219E0;4.845265865E0;1.110311031E1
3.917117624E0;9.080010056E-1;4.663306236E0;1.180939960E1
3.933783614E0;8.271966577E-1;4.711789131E0;1.167831707E1
3.950449603E0;7.074866295E-1;5.222352505E0;1.098758984E1
3.967115593E0;8.672995567E-1;5.198410511E0;1.049618053E1
3.983781583E0;1.021126986E0;4.721365929E0;1.044829655E1
4.000447572E0;1.477820992E0;4.489128113E0;1.074936676E1
4.017113562E0;2.025494576E0;3.733757496E0;1.158135223E1
4.033779551E0;2.259527922E0;3.157353401E0;1.207994461E1
4.050445541E0;1.909974456E0;3.133411407E0;1.275032139E1
4.067111530E0;1.804629564E0;3.116053581E0;1.251269627E1
4.083777520E0;1.964442492E0;2.727594376E0;1.146104336E1
4.100443510E0;2.120065689E0;2.145204782E0;1.024838066E1
4.117109499E0;1.763329506E0;2.027888775E0;9.214683533E0
4.133775489E0;1.548449993E0;2.178124905E0;8.340201378E0
4.150441478E0;1.877652645E0;2.141014814E0;7.745841026E0
4.167107468E0;1.744774461E0;2.248155355E0;7.501632690E0
4.183773458E0;1.540668845E0;2.321178436E0;7.562086105E0
4.200439447E0;1.498770237E0;2.161964178E0;7.302913666E0
4.217105437E0;1.881842494E0;1.951872945E0;7.035361767E0
4.233771426E0;1.051653147E0;1.729212165E0;7.266402245E0
4.250437416E0;7.212532759E-1;2.375646591E0;7.653664112E0
4.267103405E0;9.247604012E-1;2.635417461E0;7.895478725E0
4.283769395E0;9.469067454E-1;2.729389906E0;7.531559944E0
4.300435385E0;5.081692934E-1;3.186083794E0;7.313088894E0
4.317101374E0;2.118868530E-1;3.395576477E0;7.087435722E0
4.333767364E0;3.046621680E-1;3.488351822E0;6.970718384E0
4.350433353E0;4.620809257E-1;3.423708439E0;7.105990410E0
4.367099343E0;5.165489912E-1;3.678092480E0;7.249642849E0
4.383765333E0;8.224082589E-1;3.873818398E0;7.468712330E0
4.400431322E0;9.205705523E-1;3.770269156E0;7.617751122E0
4.417097312E0;9.786299467E-1;3.740940094E0;8.475474358E0
4.433763301E0;8.672995567E-1;3.363254786E0;9.549872398E0
4.450429291E0;8.451532125E-1;3.198055029E0;1.043452930E1
4.467095280E0;6.655880809E-1;3.469796896E0;1.084573364E1
4.483761270E0;-1.436521020E-2;4.410717964E0;9.913191795E0
4.500427260E0;-5.847837925E-1;5.181052685E0;8.398859978E0
4.517093249E0;-1.124077678E0;5.777208805E0;7.256227016E0
4.533759239E0;-9.816226959E-1;6.029797077E0;7.372944355E0
4.550425228E0;-1.945288926E-1;5.770026207E0;8.091204643E0
4.567091218E0;-3.950432688E-2;5.185841084E0;9.010578156E0
4.583757208E0;-4.578910768E-1;4.808753967E0;9.498994827E0
4.600423197E0;-9.702502489E-1;4.903325081E0;9.782708168E0
4.617089187E0;-1.738788962E0;5.022436619E0;1.045547867E1
4.633755176E0;-1.648407817E0;5.095459938E0;1.164120674E1
4.650421166E0;-1.550245643E0;4.725555420E0;1.292090797E1
4.667087155E0;-1.335366011E0;3.731961966E0;1.441907978E1
4.683753145E0;-8.188169599E-1;2.458246708E0;1.509723759E1
4.700419135E0;-8.750807047E-1;1.999756932E0;1.454357815E1
4.717085124E0;-7.392097712E-1;1.463455796E0;1.319205093E1
4.733751114E0;-3.573346138E-1;1.811213613E0;1.079306126E1
4.750417103E0;-6.290764809E-1;2.862866640E0;8.935759544E0
4.767083093E0;-6.530185342E-1;3.228580952E0;7.515997887E0
4.783749083E0;-8.750807047E-1;3.122039080E0;7.268796444E0
4.800415072E0;-9.516952038E-1;2.803011656E0;7.755417824E0
4.817081062E0;-9.026140571E-1;2.430713177E0;8.404246330E0
4.833747051E0;-4.495113790E-1;2.214636564E0;8.687360764E0
4.850413041E0;-1.795651205E-2;2.514510393E0;8.003217697E0
4.867079030E0;2.645592988E-1;2.906560898E0;6.854599476E0
4.883745020E0;1.151610970E0;2.311601639E0;5.974730492E0
4.900411010E0;1.269525409E0;2.030282974E0;5.705382824E0
4.917076999E0;4.016273320E-1;2.562992811E0;5.926846504E0
4.933742989E0;-4.112041295E-1;3.491344690E0;6.248866558E0
4.950408978E0;5.985504016E-3;3.543418407E0;6.672041416E0
4.967074968E0;1.045069098E0;2.583942175E0;6.851606846E0
4.983740958E0;1.179742932E0;2.756923199E0;7.541136742E0
5.000406947E0;1.168969035E0;2.964620352E0;7.711124897E0
5.017072937E0;1.115697980E0;2.923320293E0;7.953537941E0
5.033738926E0;1.029506683E0;2.920926094E0;8.143877029E0
5.050404916E0;7.577648163E-1;3.513490915E0;8.359953880E0
5.067070905E0;9.307458997E-1;3.929483652E0;8.259397507E0
5.083736895E0;1.373074651E0;3.842095137E0;8.788516045E0
5.191164376E0;2.664147854E0;3.742137194E0;7.299322605E0
5.207830365E0;2.646191359E0;3.833117008E0;7.860762596E0
5.224496355E0;2.326565504E0;3.688866377E0;8.793304443E0
5.241162345E0;9.379284978E-1;3.525461912E0;8.610147476E0
5.257828334E0;-7.541735470E-2;3.120243311E0;7.684190273E0
5.274494324E0;9.804255962E-1;2.822165251E0;6.906075001E0
5.291160313E0;2.755726099E0;2.591723442E0;6.376357555E0
5.307826303E0;3.785831451E0;2.377442360E0;5.899312973E0
5.324492293E0;3.530250311E0;2.723404408E0;5.897517204E0
5.341158282E0;3.388992548E0;2.944868088E0;6.090848923E0
5.357824272E0;3.158550501E0;3.181894064E0;6.051344872E0
5.374490261E0;3.197456360E0;3.292625904E0;5.868188381E0
5.391156251E0;3.451840401E0;3.489548922E0;5.811924458E0
5.407822240E0;3.892373323E0;3.676895142E0;5.871181011E0
5.424488230E0;3.730764866E0;4.239532471E0;5.826888561E0
5.441154220E0;1.929128051E0;4.985326290E0;5.886145115E0
5.457820209E0;9.319429994E-1;5.847239017E0;6.593032837E0
5.474486199E0;1.188122630E0;6.301538944E0;7.170035362E0
5.491152188E0;2.840720415E0;5.102642536E0;7.570465565E0
5.507818178E0;3.118447781E0;4.374804974E0;7.490858555E0
5.524484168E0;3.106476784E0;4.735731125E0;7.325059891E0
5.541150157E0;2.966415882E0;5.178658485E0;7.392696381E0
5.557816147E0;3.068768024E0;5.087080002E0;7.453748226E0
5.574482136E0;3.596689463E0;5.182249546E0;7.654263020E0
5.591148126E0;4.029441357E0;5.058349609E0;8.013393402E0
5.607814115E0;3.685873508E0;4.739920616E0;8.510788918E0
5.624480105E0;3.499724388E0;4.777030945E0;9.397840500E0
5.641146095E0;2.993949175E0;5.493495941E0;1.050994682E1
5.657812084E0;2.914940596E0;6.160879612E0;1.111987019E1
5.674478074E0;3.781043053E0;5.652710438E0;1.068472385E1
5.691144063E0;4.377797604E0;4.699818134E0;1.036030960E1
5.707810053E0;4.720168591E0;4.347870350E0;9.880870819E0
5.724476043E0;4.459799290E0;4.371812344E0;1.023401546E1
5.741142032E0;4.138377666E0;4.124610901E0;1.162684155E1
5.757808022E0;4.210203648E0;2.927510023E0;1.322796440E1
5.774474011E0;4.135983467E0;1.175553083E0;1.258272743E1
5.791140001E0;4.009689331E0;9.205705523E-1;1.105283260E1
5.807805990E0;3.973776340E0;1.339555860E0;9.919775963E0
5.824471980E0;3.499724388E0;1.785475969E0;9.675567627E0
5.841137970E0;3.285443306E0;1.741781712E0;9.023147583E0
5.857803959E0;2.990357876E0;1.409586191E0;8.082226753E0
5.874469949E0;2.777273893E0;1.014542937E0;6.916250229E0
5.891135938E0;3.268085241E0;7.960720658E-1;6.896498203E0
5.907801928E0;2.941875219E0;1.183932781E0;7.633912086E0
5.924467918E0;2.233790159E0;1.376665950E0;6.744466305E0
5.941133907E0;1.469441295E0;1.034295082E0;6.952163219E0
5.957799897E0;1.953070045E0;1.151610970E0;5.550956726E0
5.974465886E0;1.738190413E0;1.687912226E0;5.792770863E0
5.991131876E0;1.125873327E0;2.362478495E0;6.907870293E0
6.007797865E0;2.053027868E0;2.009333849E0;7.346607685E0
6.024463855E0;3.224391222E0;1.344344258E0;7.805097580E0
6.041129845E0;3.407547474E0;1.452681899E0;9.695918083E0
6.057795834E0;2.976591349E0;1.189319730E0;6.631340027E0
6.074461824E0;2.567781210E0;1.561618090E0;6.602609634E0
6.091127813E0;3.492541790E0;1.322197914E0;7.414842606E0
6.107793803E0;2.509721994E0;1.813607812E-1;8.430583000E0
6.124459793E0;2.373252392E0;-5.392939448E-1;1.067873859E1
6.141125782E0;3.193266630E0;-6.500257850E-1;1.067514706E1
6.157791772E0;2.796427488E0;-5.410895944E-1;9.919178009E0
6.174457761E0;1.399410844E0;2.214636654E-2;9.034520149E0
6.191123751E0;-2.364274114E-1;2.343923569E0;8.450334549E0
6.207789740E0;3.705027103E-1;5.209783077E0;7.850587368E0
6.224455730E0;1.829768658E0;5.168482780E0;9.363722801E0
6.241121720E0;1.935113549E0;5.866392612E0;9.160215378E0
6.257787709E0;1.734599113E0;6.439205647E0;1.113124180E1
6.274453699E0;2.108094692E0;5.431845188E0;1.202846909E1
6.291119688E0;2.855085611E0;3.565564871E0;1.299991703E1
6.307785678E0;2.958036184E0;3.127425909E0;1.367927170E1
6.324451668E0;3.454833031E0;3.442862034E0;1.266353130E1
6.341117657E0;3.014898539E0;3.779845953E0;9.843161583E0
6.357783647E0;1.875258446E0;4.195240021E0;8.672396660E0
6.374449636E0;1.270123959E0;4.595071793E0;9.655217171E0
6.391115626E0;4.185064793E0;1.711854219E0;9.873687744E0
6.407781615E0;3.688267708E0;1.886032343E0;1.009515190E1
6.424447605E0;6.745663285E-1;2.454655409E0;1.101991177E1
6.441113595E0;1.059434295E0;1.365293503E0;1.110430717E1
6.457779584E0;3.050811529E0;2.035071515E-2;9.436745644E0
6.474445574E0;3.188478231E0;4.584896266E-1;7.751826763E0
6.491111563E0;1.957259893E0;9.714473486E-1;6.919841290E0
6.507777553E0;1.724423766E0;1.482609391E0;6.141127586E0
6.524443543E0;3.532046080E0;2.017114908E-1;5.918466568E0
6.541109532E0;3.070563793E0;-3.633201122E-1;6.876147270E0
6.557775522E0;2.622848034E0;-6.763619781E-1;6.235099792E0
6.574441511E0;2.831143618E0;-5.153518915E-1;3.025073767E0
6.591107501E0;3.581725836E0;-6.135141850E-1;8.110358119E-1
6.607773490E0;4.669890404E0;-2.747346461E-1;1.148019671E0
6.624439480E0;5.251681328E0;-5.638344884E-1;3.429693937E0
6.641105470E0;5.689820290E0;-6.362590790E-1;4.484938145E0
6.657771459E0;5.740098476E0;-4.273650050E-1;3.116652012E0
6.674437449E0;5.347449303E0;-2.896983922E-1;1.355716705E0
6.691103438E0;5.472546577E0;-7.314286232E-1;4.129997790E-1
6.707769428E0;4.942230701E0;-1.041477680E0;5.596446395E-1
6.724435418E0;5.537189960E0;-1.506551385E0;4.291606545E-1
6.741101407E0;6.630741596E0;-2.221220732E0;5.333084464E-1
6.757767397E0;7.603984833E0;-2.657563925E0;1.588552833E0
6.774433386E0;7.823053837E0;-2.856881142E0;2.654571056E0
6.791099376E0;8.372523308E0;-2.995146275E0;1.593341231E0
6.807765365E0;9.101557732E0;-3.551199675E0;7.104793787E-1
6.824431355E0;9.820416451E0;-4.317344189E0;1.464054346E0
6.841097345E0;1.035671806E1;-5.334281445E0;2.935291290E0
6.857763334E0;1.088823032E1;-6.042366505E0;4.276642799E0
6.874429324E0;1.122282028E1;-6.606799603E0;4.323329926E0
6.891095313E0;1.111508179E1;-7.560290337E0;3.491943121E0
6.907761303E0;1.102410126E1;-8.166023254E0;3.130418777E0
6.924427293E0;1.137425327E1;-8.495225906E0;2.764704466E0
6.941093282E0;1.186087513E1;-8.886677742E0;2.229600430E0
6.957759272E0;1.234031391E1;-9.203909874E0;1.728613615E0
6.974425261E0;1.360086155E1;-9.974843025E0;8.523358107E-1
6.991091251E0;1.429996777E1;-1.086428833E1;1.496376097E-1
7.007757240E0;1.449569416E1;-1.115398693E1;7.044938207E-1
7.024423230E0;1.476324654E1;-1.146822643E1;1.456871748E0
7.041089220E0;1.449868679E1;-1.037647057E1;2.270301819E0
7.057755209E0;1.465969658E1;-8.966883659E0;2.287659645E0
7.074421199E0;1.472673512E1;-7.310096264E0;2.501342297E0
7.091087188E0;1.512776375E1;-5.992088318E0;2.478597403E0
7.107753178E0;1.469261742E1;-5.218162537E0;1.438316703E0
7.124419168E0;1.327345467E1;-4.791994572E0;4.375403523E-1
7.141085157E0;1.157416916E1;-4.483142853E0;-6.386532784E-1
7.157751147E0;1.030584145E1;-4.195838451E0;-1.867477298E0
7.174417136E0;9.317634583E0;-3.981557369E0;-2.762908697E0
7.191083126E0;8.522759438E0;-3.994725466E0;-3.203441858E0
7.207749115E0;7.539939880E0;-3.716998100E0;-3.001131773E0
7.224415105E0;6.645705223E0;-3.576338768E0;-2.431311846E0
7.241081095E0;6.046556473E0;-3.706224203E0;-1.203684926E0
7.257747084E0;5.738302708E0;-3.958812475E0;1.550245583E-1
7.274413074E0;5.982511520E0;-4.200028419E0;1.562216640E0
7.291079063E0;6.253056526E0;-3.952826977E0;2.302623510E0
7.307745053E0;6.570886612E0;-3.885190725E0;1.558625340E0
7.324411043E0;6.846818447E0;-4.064157486E0;3.705027103E-1
7.341077032E0;6.767210960E0;-4.379593372E0;-5.279214978E-1
7.357743022E0;6.459556103E0;-4.750694752E0;-1.287482023E0
7.374409011E0;6.525396824E0;-5.508459568E0;-2.066195965E0
7.391075001E0;6.646902561E0;-5.937021732E0;-1.667561531E0
7.407740990E0;6.554725647E0;-6.143521786E0;-9.283517003E-1
7.424406980E0;6.579266071E0;-6.180033207E0;-6.554127336E-1
7.441072970E0;6.335057735E0;-5.775413036E0;-7.194576263E-1
7.457738959E0;6.812700748E0;-6.010643482E0;-1.202487826E0
7.474404949E0;6.396110058E0;-5.805340767E0;-1.388636947E0
7.491070938E0;5.443816185E0;-5.737704277E0;-1.652597666E0
7.507736928E0;5.282805920E0;-6.165668011E0;-2.459443808E0
7.524402918E0;5.261856556E0;-6.643909931E0;-2.704250813E0
7.541068907E0;5.455787182E0;-7.053318024E0;-2.672527552E0
7.557734897E0;6.056133270E0;-7.279570103E0;-2.860472441E0
7.574400886E0;6.554127216E0;-7.137115479E0;-2.851494312E0
7.591066876E0;7.244256020E0;-6.753444672E0;-2.820968151E0
7.607732865E0;7.860762596E0;-6.983287811E0;-3.131615877E0
7.624398855E0;8.090007782E0;-7.804499149E0;-3.608660460E0
7.641064845E0;8.094796181E0;-8.546102524E0;-3.081337690E0
7.657730834E0;8.739435196E0;-9.646837234E0;-2.035670042E0
7.674396824E0;9.953893661E0;-1.059015274E1;-7.242460251E-1
7.691062813E0;1.087985134E1;-1.040759468E1;4.590881765E-1
7.707728803E0;1.248336792E1;-9.733627319E0;1.586158633E0
7.724394793E0;1.333091545E1;-8.058284760E0;1.641225219E0
7.741060782E0;1.318666458E1;-6.369773388E0;9.900023937E-1
7.757726772E0;1.221042824E1;-5.258863926E0;-1.179144308E-1
7.774392761E0;1.094509315E1;-4.768052578E0;-9.277531505E-1
7.791058751E0;1.010472870E1;-4.908113480E0;-1.331774712E0
7.807724740E0;9.238625526E0;-4.955399036E0;-1.646612167E0
7.824390730E0;8.645462036E0;-4.884769917E0;-2.127846718E0
7.841056720E0;7.949946880E0;-4.686649799E0;-2.345719099E0
7.857722709E0;7.466916561E0;-4.513668537E0;-2.064998865E0
7.874388699E0;7.356184959E0;-4.440645695E0;-1.612494826E0
7.891054688E0;7.053318024E0;-4.527435303E0;-1.144428372E0
7.907720678E0;6.915651798E0;-4.621407986E0;-4.818331003E-1
7.924386668E0;6.935403824E0;-4.790199280E0;8.379706182E-3
7.941052657E0;6.806715488E0;-5.029020786E0;2.292448133E-1
7.957718647E0;6.918644428E0;-5.228337765E0;3.286041915E-1
7.974384636E0;6.902483463E0;-5.383961201E0;1.005564705E-1
7.991050626E0;6.764218330E0;-5.539584160E0;-3.585317135E-1
8.007716615E0;6.790554523E0;-5.664681435E0;-7.152677774E-1
8.024382605E0;6.868964672E0;-5.738302708E0;-9.906009436E-1
8.041048595E0;6.839036942E0;-5.866991043E0;-9.929951429E-1
8.057714584E0;6.888716698E0;-6.112995625E0;-7.463923693E-1
8.074380574E0;6.888118267E0;-6.338050365E0;-7.128735781E-1
8.091046563E0;6.758233070E0;-6.600813866E0;-8.002619147E-1
8.107712553E0;6.573280811E0;-7.144298077E0;-7.463923693E-1
8.124378543E0;6.694188118E0;-7.433996201E0;-4.758476019E-1
8.141044532E0;6.958148479E0;-7.777564049E0;-2.268506140E-1
8.157710522E0;7.001244545E0;-7.696161270E0;-9.756371975E-1
8.174376511E0;7.079654217E0;-7.835623741E0;-1.710657120E0
8.191042501E0;6.755838871E0;-7.866149902E0;-2.338536501E0
8.207708490E0;6.275801182E0;-7.855974197E0;-2.606687069E0
8.224374480E0;6.188412666E0;-8.008006096E0;-2.502539396E0
8.241040470E0;6.129156113E0;-8.034342766E0;-2.197278500E0
8.257706459E0;6.029198647E0;-7.912836552E0;-2.326565504E0
8.274372449E0;6.462548733E0;-8.003816605E0;-3.087921619E0
8.291038438E0;7.219715118E0;-8.297704697E0;-4.107851505E0
8.307704428E0;7.162852764E0;-8.201936722E0;-4.182670593E0
8.324370418E0;7.340622425E0;-8.517372131E0;-3.695450306E0
8.341036407E0;7.556100368E0;-8.507795334E0;-2.615665436E0
8.357702397E0;7.669226646E0;-8.271966934E0;-1.558625340E0
8.374368386E0;7.758410454E0;-7.739855766E0;-6.542156339E-1
8.391034376E0;8.349180222E0;-7.266402245E0;-2.747346461E-1
8.407700365E0;8.716690063E0;-6.720524311E0;-5.189431906E-1
8.424366355E0;8.862137794E0;-6.446388245E0;-1.292270422E0
8.441032345E0;8.857349396E0;-6.090250492E0;-1.890820742E0
8.457698334E0;8.871714592E0;-5.757456303E0;-1.686715126E0
8.474364324E0;8.972270966E0;-5.422866821E0;-1.421557307E0
8.491030313E0;8.971074104E0;-5.082890034E0;-1.350928307E0
8.507696303E0;8.734047890E0;-4.893149853E0;-1.540070295E0
8.524362293E0;8.435969353E0;-4.888959885E0;-1.758541107E0
8.541028282E0;7.627327919E0;-4.504690647E0;-2.059013367E0
8.557694272E0;6.846219540E0;-4.144362926E0;-2.397194386E0
8.574360261E0;6.143521786E0;-3.751115561E0;-2.109890223E0
8.591026251E0;5.764639378E0;-3.593098164E0;-1.485003591E0
8.607692240E0;5.573102951E0;-3.538031578E0;-6.602011323E-1
8.624358230E0;5.488707542E0;-3.588309765E0;5.207388848E-2
8.641024220E0;5.458181381E0;-3.727771997E0;4.195838571E-1
8.657690209E0;5.808931828E0;-4.248510838E0;5.985504389E-1
8.674356199E0;6.247669220E0;-4.682459831E0;1.059434295E0
8.691022188E0;6.713940144E0;-4.859631062E0;1.006163239E0
8.707688178E0;7.278373241E0;-5.026028156E0;3.531447425E-2
8.724354168E0;7.663839817E0;-4.940435410E0;-1.225232720E0
8.741020157E0;7.365162849E0;-4.769249916E0;-2.353500366E0
8.757686147E0;6.890512466E0;-4.975151062E0;-2.753331900E0
8.774352136E0;6.646902561E0;-5.160701752E0;-2.145803213E0
8.791018126E0;6.840832710E0;-5.549759388E0;-1.751358509E0
8.807684115E0;7.111976147E0;-5.953781128E0;-2.039859772E0
8.824350105E0;7.662642479E0;-6.433818340E0;-2.598906040E0
8.841016095E0;8.067861557E0;-6.822277546E0;-3.057395458E0
8.857682084E0;8.655637741E0;-7.426215172E0;-3.251924515E0
8.874348074E0;9.036315918E0;-7.495048523E0;-3.009511471E0
8.891014063E0;9.559449196E0;-7.192182064E0;-2.975394249E0
8.907680053E0;1.037108326E1;-7.383718014E0;-3.688267708E0
8.924346043E0;1.072003841E1;-7.911040783E0;-4.313154221E0
8.941012032E0;1.081999588E1;-8.596980095E0;-4.580107689E0
8.957678022E0;1.130123043E1;-9.356540680E0;-3.627814054E0
8.974344011E0;1.161487103E1;-9.752780914E0;-2.332551003E0
8.991010001E0;1.203325748E1;-9.349956512E0;-1.142632723E0
9.007675990E0;1.225831223E1;-8.264185905E0;-7.422025204E-1
9.024341980E0;1.205420685E1;-7.052719593E0;-1.037886381E0
9.041007970E0;1.136108589E1;-6.022016048E0;-1.442506552E0
9.057673959E0;1.055543709E1;-5.363610268E0;-1.464652896E0
9.074339949E0;9.828796387E0;-5.142146587E0;-1.243787766E0
9.091005938E0;9.184157372E0;-5.039794445E0;-1.067813993E0
9.107671928E0;8.611943245E0;-5.017648220E0;-1.165976286E0
9.124337918E0;8.288725853E0;-5.264849663E0;-1.374271750E0
9.141003907E0;7.857769966E0;-5.448006153E0;-1.090558887E0
9.157669897E0;7.349600792E0;-5.397129059E0;-4.806360006E-1
9.174335886E0;7.004237175E0;-5.179256916E0;-2.633621916E-2
9.191001876E0;6.765415668E0;-4.897339344E0;5.656301379E-1
9.207667865E0;6.704363346E0;-4.588487625E0;9.522937536E-1
9.224333855E0;6.697779179E0;-4.380191803E0;8.912416101E-1
9.240999845E0;6.661866188E0;-4.347271919E0;6.027402878E-1
9.257665834E0;6.549937248E0;-4.535216331E0;2.430114746E-1
9.274331824E0;6.431424141E0;-4.749497414E0;1.149216816E-1
9.290997813E0;6.324283600E0;-5.096058369E0;1.675941236E-2
9.307663803E0;6.033987045E0;-5.403713226E0;-2.585737705E-1
9.324329793E0;5.873575211E0;-5.585073948E0;-5.009866953E-1
9.340995782E0;5.933430195E0;-5.731719017E0;-4.920084476E-1
9.357661772E0;6.024410248E0;-5.860407352E0;-3.076549172E-1
9.374327761E0;5.941211700E0;-6.078279495E0;1.873462796E-1
9.390993751E0;6.185420036E0;-6.278793812E0;7.116764784E-1
9.407659740E0;6.234501362E0;-6.432621479E0;1.213261724E0
9.424325730E0;6.426037312E0;-6.557718277E0;8.140285611E-1
9.440991720E0;6.344036102E0;-6.777985096E0;-1.173158810E-1
9.457657709E0;6.263231754E0;-7.019200802E0;-9.199720025E-1
9.474323699E0;6.491279125E0;-7.478289127E0;-1.613691926E0
9.490989688E0;6.801328659E0;-7.649474621E0;-1.944690347E0
9.507655678E0;7.029974937E0;-7.569867134E0;-1.874659896E0
9.524321668E0;7.110779285E0;-7.476493359E0;-1.911171556E0
9.540987657E0;7.269993305E0;-7.397484779E0;-2.162562609E0
9.557653647E0;7.584830761E0;-7.621941090E0;-2.622848034E0
9.574319636E0;8.178592682E0;-8.321047783E0;-3.503914118E0
9.590985626E0;8.397064209E0;-8.471882820E0;-3.741538763E0
9.607651615E0;8.497021675E0;-8.474875450E0;-3.415927172E0
9.624317605E0;8.113949776E0;-8.118139267E0;-3.086126089E0
9.640983595E0;7.711723804E0;-7.495048523E0;-2.801215887E0
9.657649584E0;7.646481514E0;-7.056909561E0;-2.633621931E0
9.674315574E0;7.603984833E0;-6.560112476E0;-2.694674015E0
9.690981563E0;7.800309181E0;-6.356007099E0;-2.715623379E0
9.707647553E0;8.185176849E0;-6.150105476E0;-2.573168278E0
9.724313543E0;8.661623001E0;-6.011840343E0;-2.375646591E0
9.740979532E0;8.945934296E0;-5.844844818E0;-2.297835112E0
9.757645522E0;9.118317604E0;-5.635950565E0;-2.642001629E0
9.774311511E0;9.269750595E0;-5.500079632E0;-3.006518841E0
9.790977501E0;9.150638580E0;-5.222950935E0;-3.139995575E0
9.807643490E0;8.723872185E0;-4.939238071E0;-3.259107113E0
9.824309480E0;8.016983986E0;-4.709993362E0;-3.154959202E0
9.840975470E0;7.328052998E0;-4.428076267E0;-2.633621931E0
9.857641459E0;6.745064735E0;-4.150947094E0;-2.128445387E0
9.874307449E0;6.267421722E0;-3.995324135E0;-1.804629564E0
9.890973438E0;6.039373875E0;-4.024054527E0;-1.466448545E0
9.907639428E0;5.627571106E0;-4.006696701E0;-1.291073322E0
9.924305418E0;5.260061264E0;-3.976170540E0;-1.227626920E0
9.940971407E0;5.122394562E0;-4.105457306E0;-1.095945835E0
9.957637397E0;5.075109005E0;-4.329913616E0;-9.445125461E-1
9.974303386E0;4.995501995E0;-4.734533787E0;-8.403648138E-1
9.990969376E0;5.072116375E0;-5.297770023E0;-6.542156339E-1
1.000763536E1;5.479729176E0;-5.614402771E0;-4.507084787E-1
1.002430136E1;5.850231647E0;-5.521028996E0;-3.495534360E-1
1.004096734E1;6.408679485E0;-5.506663799E0;-4.614823759E-1
1.005763333E1;6.827065945E0;-5.366004467E0;-9.451110959E-1
1.007429932E1;6.900687695E0;-5.210979939E0;-1.859696150E0
1.009096531E1;7.082647324E0;-5.314529419E0;-2.367865562E0
1.010763130E1;7.473500729E0;-5.624578476E0;-2.445078373E0
1.012429729E1;8.045714378E0;-6.168660641E0;-2.257732153E0
1.014096328E1;8.559270859E0;-6.770802498E0;-2.221819162E0
1.015762927E1;9.130288124E0;-7.250839710E0;-2.507926226E0
1.017429526E1;9.840168953E0;-7.247248650E0;-2.628833532E0
1.019096125E1;1.025496483E1;-6.822277546E0;-2.677914619E0
1.020762724E1;1.019271564E1;-6.415862083E0;-2.981978178E0
1.022429323E1;1.023940182E1;-6.633135796E0;-3.670909643E0
1.024095922E1;1.012807178E1;-7.203554153E0;-3.833715439E0
1.025762521E1;1.013585281E1;-7.770980358E0;-3.309385300E0
1.027429120E1;1.043213558E1;-8.768165588E0;-2.794033289E0
1.029095719E1;1.083256531E1;-9.543288231E0;-1.643020868E0
1.030762318E1;1.141315937E1;-9.782109261E0;-3.220201433E-1
1.032428917E1;1.182496262E1;-8.630498886E0;5.009866953E-1
1.034095516E1;1.200153446E1;-6.851606846E0;1.795651317E-1
1.035762115E1;1.199554920E1;-5.449203014E0;-1.212663174E0
1.037428714E1;1.120845509E1;-4.734533787E0;-2.843114614E0
1.039095313E1;1.022324085E1;-4.797980309E0;-3.971980572E0
1.040761912E1;9.552865028E0;-5.164891720E0;-4.280233860E0
1.042428510E1;9.233239174E0;-5.400720596E0;-4.043208122E0
1.044095109E1;9.063250542E0;-5.392340660E0;-3.544017076E0
1.045761708E1;8.832210541E0;-5.251681328E0;-2.723404408E0
1.047428307E1;8.327033043E0;-4.980537891E0;-2.114080191E0
1.049094906E1;7.861959934E0;-4.754285812E0;-1.626860023E0
1.050761505E1;7.441178799E0;-4.619612217E0;-9.828197956E-1
1.052428104E1;7.098807812E0;-4.606443882E0;-5.865794420E-1
1.054094703E1;7.019200802E0;-4.827309132E0;-4.908113480E-1
1.055761302E1;6.918644428E0;-5.017049789E0;-4.207809567E-1
1.057427901E1;6.754043102E0;-5.355829239E0;-4.668693244E-1
1.059094500E1;6.569090843E0;-5.610213280E0;-3.034650683E-1
1.060761099E1;6.527791023E0;-5.874173641E0;-2.992752194E-2
1.062427698E1;6.677428722E0;-6.138733387E0;2.256535143E-1
1.064094297E1;6.903081894E0;-6.369174957E0;4.734533727E-1
1.065760896E1;7.170035362E0;-6.552331448E0;7.140706778E-1
1.067427495E1;7.416638374E0;-6.621763229E0;9.050082564E-1
1.069094094E1;7.727285862E0;-6.709750175E0;8.295909166E-1
1.070760693E1;7.879916191E0;-6.974907875E0;6.889315248E-1
1.072427292E1;7.599794865E0;-7.372944355E0;4.028244317E-1
1.074093891E1;7.459135532E0;-7.627926826E0;5.542576909E-1
1.075760490E1;7.819462776E0;-7.924807549E0;2.364274114E-1
1.077427089E1;7.669226646E0;-8.073247910E0;-3.369838893E-1
1.079093688E1;7.424419403E0;-8.172008514E0;-5.841852427E-1
1.080760286E1;7.156867504E0;-8.185775757E0;-3.250128925E-1
1.082426886E1;6.848613739E0;-8.169614792E0;1.233013868E-1
1.084093484E1;6.450577736E0;-8.078635216E0;2.849099934E-1
1.085760083E1;6.189011574E0;-8.009801865E0;4.728548229E-2
1.087426682E1;6.991667747E0;-8.538920403E0;-8.780734539E-1
1.089093281E1;8.586804390E0;-9.079411507E0;-2.115277290E0
1.090759880E1;9.440337181E0;-9.126696587E0;-3.414131641E0
1.092426479E1;7.293336868E0;-8.180987358E0;-5.537788391E0
1.094093078E1;4.328716755E0;-7.146692276E0;-7.316680431E0
1.095759677E1;3.927089453E0;-6.755838871E0;-7.319673061E0
1.097426276E1;4.824316502E0;-6.254253387E0;-4.249109268E0
1.099092875E1;6.350619793E0;-6.525396824E0;-1.941099048E0
1.100759474E1;6.922235489E0;-6.745663166E0;-6.757634282E-1
1.102426073E1;6.490680695E0;-6.706159115E0;-4.028244317E-1
1.104092672E1;6.219537258E0;-6.597821236E0;-6.901286244E-1
1.105759271E1;6.713341713E0;-6.435614109E0;-9.229647517E-1
1.107425870E1;7.667430878E0;-6.483498096E0;-1.694496274E0
1.109092469E1;7.920019150E0;-5.995679379E0;-2.470816135E0
1.110759068E1;7.882310390E0;-5.448006153E0;-3.296815634E0
1.112425667E1;7.630919456E0;-4.884769917E0;-3.676895142E0
1.114092266E1;7.234679222E0;-4.414907932E0;-3.580528736E0
1.115758865E1;7.212532520E0;-4.194641590E0;-2.756324768E0
1.117425464E1;7.129932880E0;-4.111443043E0;-1.969230890E0
1.119092063E1;7.012616634E0;-4.259284973E0;-1.477820992E0
1.120758662E1;6.918644428E0;-4.450820923E0;-9.445125461E-1
1.122425260E1;7.022792339E0;-4.639364243E0;-5.955576897E-1
1.124091860E1;7.421426773E0;-4.905120850E0;-6.200982332E-1
1.125758458E1;7.863755703E0;-5.096058369E0;-6.045359373E-1
1.127425057E1;8.310873032E0;-5.323507309E0;-8.319851160E-1
1.129091656E1;8.501212120E0;-5.306149483E0;-8.732850552E-1
1.130758255E1;8.886677742E0;-5.132569790E0;-1.230021119E0
1.132424854E1;8.942343712E0;-4.876988888E0;-1.809417963E0
1.134091453E1;8.936956406E0;-4.853645325E0;-2.345120668E0
1.135758052E1;8.871714592E0;-4.874594688E0;-2.637213230E0
1.137424651E1;8.828020096E0;-4.954800606E0;-2.938882589E0
1.139091250E1;8.716091156E0;-5.140350819E0;-2.895188332E0
1.140757849E1;8.908226013E0;-5.408501625E0;-2.549824715E0
1.142424448E1;9.723451614E0;-5.754463673E0;-1.860893250E0
1.144091047E1;1.056082344E1;-5.840056419E0;-1.099537134E0
1.145757646E1;1.107916832E1;-5.500678539E0;-9.534908533E-1
1.147424245E1;1.134013653E1;-5.124190331E0;-1.401805043E0
1.149090844E1;1.160768795E1;-5.220556736E0;-1.909974456E0
1.150757443E1;1.170345688E1;-6.131550789E0;-2.097320795E0
1.152424042E1;1.163582039E1;-7.329249859E0;-1.692102075E0
1.154090641E1;1.155561447E1;-8.329427719E0;-1.033696532E0
1.155757240E1;1.225951004E1;-9.045892715E0;2.783259451E-1
1.157423839E1;1.331774712E1;-8.845377922E0;1.739387512E0
1.159090438E1;1.373912621E1;-7.664438248E0;2.012925148E0
1.160757036E1;1.356853962E1;-6.353612900E0;1.535880446E0
1.162423636E1;1.263539982E1;-5.519832134E0;5.985504389E-1
1.164090234E1;1.098280144E1;-5.380968094E0;-3.112462163E-2
1.165756833E1;9.556455612E0;-5.799355030E0;-6.643909961E-2
1.167423432E1;8.454524994E0;-6.370970726E0;3.082534671E-1
1.169090031E1;7.706336498E0;-6.879139900E0;5.512649417E-1
1.170756630E1;7.416039944E0;-6.945579052E0;6.937199235E-1
1.172423229E1;7.382521152E0;-6.646902561E0;7.170634270E-1
1.174089828E1;7.421426773E0;-6.099827290E0;4.770447016E-1
1.175756427E1;7.174225330E0;-5.546168327E0;-1.496376097E-1
1.177423026E1;6.840234280E0;-5.115810394E0;-1.003170490E0
1.179089625E1;6.560711384E0;-4.828506470E0;-1.769315004E0
1.180756224E1;6.267421722E0;-4.717774391E0;-2.130240917E0
1.182422823E1;6.107009888E0;-4.744709015E0;-2.045845270E0
1.184089422E1;6.236895561E0;-4.957194805E0;-1.539471745E0
1.185756021E1;6.341042995E0;-5.185242176E0;-7.733271718E-1
1.187422620E1;6.454767704E0;-5.510853767E0;-2.771288455E-1
1.189089219E1;6.420052052E0;-5.784391403E0;-1.424549967E-1
1.190755818E1;6.485892296E0;-5.924452305E0;-1.472434103E-1
1.192422417E1;5.755062103E0;-5.709572315E0;-2.082955539E-1
1.194089016E1;5.793369770E0;-5.711966515E0;1.771709323E-1
1.195755615E1;6.093243122E0;-5.726930618E0;8.092401624E-1
1.197422214E1;6.400898457E0;-6.111798286E0;8.888474107E-1
1.199088813E1;6.351817131E0;-6.736086369E0;1.430535465E-1
1.200755412E1;6.102819920E0;-7.064092159E0;-2.076970041E-1
1.202422011E1;5.699397087E0;-7.179612160E0;-5.386953801E-2
1.204088610E1;5.458181381E0;-7.229291916E0;2.920926213E-1
1.205755208E1;5.472546577E0;-7.350797653E0;8.720879555E-1
1.207421807E1;5.455787182E0;-7.384915352E0;1.436521053E0
1.209088406E1;5.459378242E0;-7.267599106E0;1.346738458E0
1.210755005E1;5.519832134E0;-7.417236805E0;4.207809567E-1
1.212421604E1;5.406705856E0;-8.357559204E0;-1.280897856E0
1.214088203E1;5.789179802E0;-9.555857658E0;-3.242347717E0
1.215754802E1;7.672219276E0;-1.034295177E1;-3.988141537E0
1.217421401E1;9.522936821E0;-1.077809715E1;-3.684676409E0
1.219088000E1;9.269750595E0;-1.051234150E1;-2.716820478E0
1.220754599E1;8.784325600E0;-1.049797630E1;-2.225410461E0
1.222421198E1;8.456320763E0;-1.008677197E1;-1.613691926E0
1.224087797E1;8.860342026E0;-9.398438454E0;-1.883039594E0
1.225754396E1;9.984419823E0;-8.841787338E0;-3.306392431E0
1.227420995E1;1.066916180E1;-7.953537941E0;-4.692036629E0
1.229087594E1;1.032798767E1;-6.973711014E0;-5.641337872E0
1.230754193E1;9.834781647E0;-6.387131691E0;-6.272210121E0
1.232420792E1;9.086593628E0;-5.858611584E0;-6.287772179E0
1.234087391E1;7.940370083E0;-5.500678539E0;-5.766434669E0
1.235753990E1;7.508815289E0;-5.422268391E0;-4.683058739E0
1.237420589E1;7.176021099E0;-5.303156853E0;-3.518279314E0
1.239087188E1;6.752845764E0;-5.135562420E0;-2.661155224E0
1.240753786E1;6.004059315E0;-4.806359768E0;-2.052429438E0
1.242420386E1;5.497087002E0;-4.468777657E0;-1.559223890E0
1.244086985E1;5.073313236E0;-4.165312290E0;-9.558850527E-1
1.245753583E1;5.014655590E0;-4.205415249E0;-5.943605900E-1
1.247420182E1;4.791994572E0;-4.207809448E0;-6.069301367E-1
1.249086781E1;4.308365822E0;-4.407126904E0;-1.066018343E0
1.250753380E1;4.343680382E0;-4.584297657E0;-1.304839969E0
1.252419979E1;5.057751179E0;-4.613028049E0;-8.421604633E-1
1.254086578E1;5.780799866E0;-4.723161221E0;-3.465606868E-1
1.255753177E1;6.190208435E0;-4.771644115E0;-2.472013235E-1
1.257419776E1;6.401496887E0;-5.207388878E0;-2.663549483E-1
1.259086375E1;6.546346188E0;-5.923853397E0;-2.148796022E-1
1.260752974E1;6.809109688E0;-6.282385349E0;3.818751574E-1
1.262419573E1;7.837419033E0;-6.494870663E0;6.272808313E-1
1.264086172E1;8.970475197E0;-6.573280811E0;3.004723191E-1
1.265752771E1;9.637859344E0;-6.394314289E0;-3.645172119E-1
1.267419370E1;9.975440979E0;-6.551134586E0;-1.271321058E0
1.269085969E1;1.016278744E1;-6.901885033E0;-2.073977232E0
1.270752568E1;1.079844856E1;-7.247847080E0;-2.816179752E0
1.272419167E1;1.127190113E1;-7.341819286E0;-3.373430252E0
1.274085766E1;1.131858826E1;-7.237671852E0;-4.217984676E0
1.275752365E1;1.088942814E1;-6.882133007E0;-5.276222229E0
1.277418964E1;1.063923359E1;-6.815094948E0;-6.394912720E0
1.279085563E1;1.015321064E1;-7.398083210E0;-7.051522732E0
1.280752162E1;9.339181900E0;-8.017582893E0;-6.573280811E0
1.282418760E1;9.385869026E0;-8.741828918E0;-5.269638062E0
1.284085360E1;1.003050804E1;-9.147047997E0;-3.597886562E0
1.285751958E1;1.118211937E1;-8.835203171E0;-1.921346903E0
1.287418557E1;1.227806473E1;-8.234856606E0;-1.202487826E0
1.289085156E1;1.260547161E1;-7.146093369E0;-1.029506683E0
1.290751755E1;1.200452709E1;-6.716932774E0;-1.522712231E0
1.292418354E1;1.103846741E1;-6.601412773E0;-2.056020737E0
1.294084953E1;1.015740108E1;-6.845022678E0;-2.346317768E0
1.295751552E1;9.516353607E0;-7.043741226E0;-1.870470047E0
1.297418151E1;9.212887764E0;-7.202357292E0;-1.350329757E0
1.299084750E1;8.928576469E0;-7.047931194E0;-8.265981078E-1
1.300751349E1;8.617330551E0;-6.837241650E0;-4.824316502E-1
1.302417948E1;8.074444771E0;-6.560711384E0;-1.646013707E-1
1.304084547E1;7.573458672E0;-6.188412666E0;9.696517140E-2
1.305751146E1;7.240066051E0;-5.943605900E0;-1.382651478E-1
1.307417745E1;7.038952827E0;-5.673060894E0;-2.747346461E-1
1.309084344E1;6.810905457E0;-5.558737755E0;-4.249708056E-1
1.310750943E1;6.701370716E0;-5.571906090E0;-4.345476031E-1
1.312417542E1;6.515820026E0;-5.655104637E0;-2.879027426E-1
1.314084141E1;6.311714172E0;-5.838859558E0;-1.586158574E-1
1.315750740E1;6.127360821E0;-6.119579315E0;-2.394201756E-1
1.317417339E1;5.855020046E0;-6.406883717E0;-5.015852451E-1
1.319083938E1;5.439626217E0;-6.610989571E0;-8.661024570E-1
1.320750537E1;5.206789970E0;-6.724713802E0;-1.274912357E-1
1.322417136E1;5.366602898E0;-6.607996464E0;3.309983909E-1
1.324083735E1;5.212775707E0;-6.520009995E0;6.338648796E-1
1.325750333E1;5.064335346E0;-6.449979305E0;9.020155072E-1
1.327416932E1;4.934449673E0;-6.430227280E0;8.433575630E-1
1.329083531E1;4.766855717E0;-6.348225594E0;2.436100245E-1
1.330750130E1;4.613626480E0;-6.396708488E0;-3.058592677E-1
1.332416729E1;4.244919777E0;-6.553528786E0;-6.398503780E-1
1.334083328E1;4.143764496E0;-6.806715488E0;-6.649895310E-1
1.335749927E1;4.279635429E0;-7.005434036E0;-4.339490533E-1
1.337416526E1;4.362833977E0;-7.219715118E0;-7.481880188E-1
1.339083125E1;4.707000732E0;-7.345410824E0;-1.531091928E0
1.340749724E1;5.622782707E0;-8.053496361E0;-3.066373825E0
1.342416323E1;6.877943039E0;-9.057265282E0;-4.838681698E0
1.344082922E1;7.332242489E0;-9.625288963E0;-6.875548840E0
1.345749521E1;7.231087685E0;-1.002212811E1;-7.872135162E0
1.347416120E1;7.420229435E0;-1.034893703E1;-6.409277916E0
1.349082719E1;7.690176010E0;-1.049797630E1;-3.839102507E0
1.350749318E1;7.576451302E0;-1.005684471E1;-1.694496274E0
1.352415917E1;7.370550156E0;-9.360730171E0;-9.642647505E-1
1.354082516E1;7.538144112E0;-9.032125473E0;-1.282693505E0
1.355749115E1;8.370129585E0;-8.629301071E0;-1.315613866E0
1.357415714E1;9.331999779E0;-8.092401505E0;-1.764526606E0
1.359082313E1;1.016398430E1;-7.597400665E0;-2.488174200E0
1.360748912E1;1.060152531E1;-6.826467514E0;-3.980360270E0
1.362415510E1;1.044769764E1;-5.849633217E0;-6.361393929E0
1.364082110E1;9.794678688E0;-5.009268284E0;-8.623914719E0
1.365748708E1;8.817844391E0;-4.432864666E0;-9.078812599E0
1.367415307E1;7.810484409E0;-4.298190594E0;-7.205349922E0
1.369081906E1;6.770802498E0;-4.545392036E0;-4.156333923E0
1.370748505E1;6.103418827E0;-4.943428040E0;-1.529296279E0
1.372415104E1;6.038775444E0;-5.100248337E0;5.374982953E-1
1.374081703E1;6.174646378E0;-4.661510944E0;1.657984734E0
1.375748302E1;6.608595371E0;-4.496909142E0;1.407790542E0
1.377414901E1;7.044340134E0;-4.672883034E0;1.142632723E0
1.379081500E1;7.457938194E0;-5.032611847E0;1.106121182E0
1.380748099E1;7.926603317E0;-5.420472622E0;1.000776291E0
1.382414698E1;8.088809967E0;-5.813720226E0;7.015010715E-1
1.384081297E1;8.072051048E0;-5.943006992E0;6.985083222E-1
1.385747896E1;8.268974304E0;-5.533598900E0;8.379706144E-1
1.387414495E1;8.950124741E0;-4.944026470E0;7.918822169E-1
1.389081094E1;9.531316757E0;-4.083311081E0;1.137245819E-1
1.390747693E1;9.621099472E0;-3.506906986E0;-7.625532150E-1
1.392414292E1;9.184756279E0;-3.238157749E0;-1.360505104E0
1.394080891E1;8.881291389E0;-3.418920040E0;-1.512536883E0
1.395747490E1;9.094375610E0;-3.889380693E0;-1.422155857E0
1.397414089E1;9.757569313E0;-4.553173065E0;-1.896806240E0
1.399080688E1;1.009574986E1;-4.990114689E0;-2.667140722E0
1.400747286E1;1.033157921E1;-5.270236492E0;-3.238756418E0
1.402413886E1;1.076492977E1;-5.217564106E0;-3.148375273E0
1.404080484E1;1.137964058E1;-5.412691593E0;-3.212420225E0
1.405747083E1;1.169687271E1;-6.138134480E0;-3.554192305E0
1.407413682E1;1.127908421E1;-6.576871872E0;-3.424905539E0
1.409080281E1;1.142034245E1;-7.286752701E0;-2.948459387E0
1.410746880E1;1.214578533E1;-7.913434982E0;-1.975216389E0
1.412413479E1;1.305917358E1;-8.000823975E0;-9.301473498E-1
1.414080078E1;1.356734276E1;-7.716512203E0;-7.266402245E-1
1.415746677E1;1.356853962E1;-7.123947144E0;-1.256955862E0
1.417413276E1;1.271859837E1;-6.687603951E0;-2.398990154E0
1.419079875E1;1.136168385E1;-6.451176643E0;-3.290830135E0
1.420746474E1;9.988011360E0;-6.426635742E0;-3.653551817E0
1.422413073E1;9.287108421E0;-6.683413982E0;-3.392583847E0
1.424079672E1;9.097368240E0;-7.069478989E0;-2.597708941E0
1.425746271E1;8.912415504E0;-7.439383030E0;-1.704073071E0
1.427412870E1;8.497620583E0;-7.550115108E0;-1.262342811E0
1.429079469E1;7.985261440E0;-7.439981937E0;-1.149815321E0
1.430746068E1;7.650073051E0;-7.232284546E0;-1.211466074E0
1.432412667E1;7.387309551E0;-6.979097843E0;-1.203086376E0
1.434079266E1;7.098807812E0;-6.732495308E0;-1.204283476E0
1.435745865E1;6.973711014E0;-6.569689274E0;-1.259350061E0
1.437412464E1;6.954557419E0;-6.511031628E0;-1.334767461E0
1.439079063E1;6.931213856E0;-6.509834290E0;-8.667010069E-1
1.440745662E1;7.056311131E0;-6.639121532E0;-8.451532125E-1
1.442412260E1;6.891110897E0;-6.666654587E0;-1.512536883E0
1.444078860E1;7.083245754E0;-7.099406719E0;-2.361880064E0
1.445745458E1;6.619967937E0;-7.020996571E0;-2.415749550E0
1.447412057E1;6.874950409E0;-6.806715488E0;-1.901594758E0
1.449078656E1;7.042544365E0;-6.656479359E0;-1.128267527E0
1.450745255E1;6.904877663E0;-6.669647217E0;-6.452373862E-1
1.452411854E1;6.268618584E0;-6.657676220E0;-5.392939448E-1
1.454078453E1;5.670068264E0;-6.581660271E0;-6.392518282E-1
1.455745052E1;5.212775707E0;-6.596624374E0;-5.440823436E-1
1.457411651E1;4.547786236E0;-6.582857609E0;-2.801215947E-1
1.459078250E1;4.010886192E0;-6.803123951E0;-2.519897223E-1
1.460744849E1;3.606864929E0;-6.962338448E0;-2.064998895E-1
1.462411448E1;2.979583979E0;-7.063493729E0;-4.872200489E-1
1.464078047E1;2.137423515E0;-7.141903877E0;-1.344344258E0
1.465744646E1;1.525704980E0;-7.241262913E0;-2.288856745E0
1.467411245E1;1.583165884E0;-7.602787495E0;-2.923918724E0
1.469077844E1;2.485780001E0;-7.844601631E0;-3.236960649E0
1.470744443E1;4.377797604E0;-8.531139374E0;-3.766079187E0
1.472411042E1;5.793369770E0;-9.219471931E0;-4.642356873E0
1.474077641E1;6.976703644E0;-9.821015358E0;-5.184045315E0
1.475744240E1;7.835024834E0;-1.065419769E1;-5.134365559E0
1.477410839E1;8.100182533E0;-1.103846741E1;-4.102464676E0
1.479077438E1;8.525154114E0;-1.103427696E1;-2.883816004E0
1.480744036E1;9.040505409E0;-1.044949341E1;-1.953070045E0
1.482410636E1;9.644442558E0;-9.741408348E0;-1.807023764E0
1.484077235E1;1.044410610E1;-9.072228432E0;-1.950077295E0
1.485743833E1;1.107737255E1;-8.371924400E0;-2.122459888E0
1.487410432E1;1.129644203E1;-7.607575893E0;-2.176329374E0
1.489077031E1;1.114321327E1;-6.870162010E0;-2.199672699E0
1.490743630E1;1.081281376E1;-6.306327343E0;-2.295440912E0
1.492410229E1;1.055603504E1;-5.822100163E0;-2.659958124E0
1.494076828E1;9.965864182E0;-5.506065369E0;-3.414131641E0
1.495743427E1;9.166799545E0;-5.274426460E0;-3.739144564E0
1.497410026E1;8.577826500E0;-5.236717701E0;-3.555988073E0
1.499076625E1;7.943362713E0;-5.484517574E0;-3.062183857E0
1.500743224E1;7.360973358E0;-5.752069473E0;-2.091933727E0
1.502409823E1;7.108384609E0;-5.941810131E0;-1.024718285E0
1.504076422E1;6.916250229E0;-6.026804447E0;-9.397241473E-2
1.505743021E1;7.049128532E0;-6.211756229E0;6.171054840E-1
1.507409620E1;6.970718384E0;-6.189610004E0;1.041477680E0
1.509076219E1;6.877943039E0;-6.185420036E0;1.210268974E0
1.510742818E1;7.058705330E0;-6.257844925E0;1.300051570E0
1.512409417E1;7.870339394E0;-6.006453514E0;1.522113681E0
1.514076016E1;9.235034943E0;-5.441421986E0;9.594763517E-1
1.515742615E1;1.005504894E1;-4.707000732E0;-1.430535465E-1
1.517409214E1;9.777320862E0;-4.334702015E0;-1.247379065E0
1.519075813E1;9.206902504E0;-4.353257179E0;-2.114080191E0
1.520742412E1;8.865130424E0;-4.416703701E0;-2.322375536E0
1.522409010E1;8.682572365E0;-4.510077477E0;-2.662950754E0
1.524075610E1;8.747216225E0;-4.735132217E0;-3.265092611E0
1.525742208E1;8.764574051E0;-5.042787552E0;-3.614645958E0
1.527408807E1;8.996212959E0;-5.694010258E0;-3.093308687E0
1.529075406E1;9.526528358E0;-6.077681065E0;-1.836352706E0
1.530742005E1;1.030224991E1;-6.241683960E0;-1.021725535E0
1.532408604E1;1.052251625E1;-5.986701488E0;-1.699284673E0
1.534075203E1;1.075595093E1;-5.982511520E0;-3.441066504E0
1.535741802E1;1.098758984E1;-6.564900875E0;-4.817732334E0
1.537408401E1;1.107078838E1;-7.185597897E0;-4.469376087E0
1.539075000E1;1.169028854E1;-8.382699013E0;-3.253121614E0
1.540741599E1;1.201051235E1;-9.089587212E0;-2.077568531E0
1.542408198E1;1.241453457E1;-9.024344444E0;-1.687313676E0
1.544074797E1;1.295382786E1;-8.409633636E0;-2.050035238E0
1.545741396E1;1.278982544E1;-7.674613476E0;-2.691082716E0
1.547407995E1;1.210927391E1;-7.268198013E0;-3.020285368E0
1.549074594E1;1.125035381E1;-7.260416508E0;-2.630629063E0
1.550741193E1;1.062726307E1;-7.651868820E0;-1.921945453E0
1.552407792E1;1.019929886E1;-8.239047050E0;-1.142632723E0
1.554074391E1;9.830592155E0;-8.699930191E0;-4.177882075E-1
1.555740990E1;9.555258751E0;-8.873510361E0;2.304419130E-1
1.557407589E1;9.291297913E0;-8.985439301E0;6.027402878E-1
1.559074188E1;8.988431931E0;-8.873510361E0;7.326257229E-1
1.560740786E1;8.648454666E0;-8.730456352E0;5.422866940E-1
1.562407386E1;8.280346870E0;-8.558073997E0;3.214215636E-1
1.564073984E1;7.947552681E0;-8.338405609E0;6.045359373E-2
1.565740583E1;7.569867134E0;-8.168417931E0;-1.963245422E-1
1.567407182E1;7.101800919E0;-8.032546997E0;-2.663549483E-1
1.569073781E1;6.852205276E0;-7.934982777E0;-2.777273953E-1
1.570740380E1;6.691195011E0;-8.006809235E0;-4.932055473E-1
1.572406979E1;5.766434669E0;-7.969100475E0;-6.111199856E-1
1.574073578E1;5.346850872E0;-7.681197643E0;-3.561375141E-1
1.575740177E1;5.151124954E0;-7.233481884E0;6.045359373E-2
1.577406776E1;4.887762547E0;-6.898892403E0;1.203086376E-1
1.579073375E1;4.817133904E0;-6.769006729E0;3.148375154E-1
1.580739974E1;4.738723755E0;-6.796540260E0;5.770025849E-1
1.582406573E1;4.417302132E0;-6.906673431E0;7.936778665E-1
1.584073172E1;3.525461912E0;-6.788758755E0;7.733271718E-1
1.585739771E1;2.812588453E0;-6.607398033E0;5.033808947E-1
1.587406370E1;2.618658066E0;-6.523002625E0;-8.379706182E-3
1.589072969E1;2.785055161E0;-6.582259178E0;-5.901707411E-1
1.590739568E1;2.817975283E0;-6.694188118E0;-9.846154451E-1
1.592406167E1;2.568379879E0;-6.820482254E0;-1.304241419E0
1.594072766E1;2.231395960E0;-6.933009624E0;-1.349132657E0
1.595739365E1;2.242169857E0;-7.050325394E0;-1.232415318E0
1.597405964E1;2.730587006E0;-7.524377346E0;-1.203684926E0
1.599072563E1;3.509301186E0;-8.340201378E0;-3.091512918E0
1.600739162E1;4.222174644E0;-9.202114105E0;-6.240486622E0
1.602405761E1;5.198410511E0;-1.017535686E1;-8.617929459E0
1.604072360E1;6.044162273E0;-1.111508179E1;-8.411429405E0
1.605738958E1;6.940192223E0;-1.169926643E1;-5.887940407E0
1.607405557E1;8.210315704E0;-1.188481712E1;-3.245340347E0
1.609072156E1;9.153033257E0;-1.181718063E1;-1.741183162E0
1.610738755E1;9.718064308E0;-1.126112747E1;-1.172560334E0
1.612405354E1;1.021306610E1;-1.066616821E1;-1.264737010E0
1.614071953E1;1.087745667E1;-1.029327202E1;-1.394622445E0
1.615738552E1;1.124556541E1;-9.802460670E0;-1.471835494E0
1.617405151E1;1.142393303E1;-9.151237488E0;-1.838148355E0
1.619071750E1;1.117074680E1;-8.398261070E0;-2.466626406E0
1.620738349E1;1.049558163E1;-7.726687431E0;-3.128024578E0
1.622404948E1;9.629479408E0;-7.119757175E0;-3.323152065E0
1.624071547E1;8.566453934E0;-6.666654587E0;-2.834136248E0
1.625738146E1;7.486668587E0;-6.407482147E0;-1.979406238E0
1.627404745E1;6.531382084E0;-6.183624268E0;-9.744400978E-1
1.629071344E1;5.806537628E0;-5.740696907E0;5.985504249E-4
1.630737943E1;5.285200119E0;-5.267243862E0;6.063315868E-1
1.632404542E1;5.018246651E0;-4.908113480E0;8.756792545E-1
1.634071141E1;4.745906353E0;-4.724956989E0;5.602431893E-1
1.635737740E1;4.791994572E0;-4.839280128E0;-5.805939063E-2
1.637404339E1;4.724956989E0;-5.060743809E0;-6.470330358E-1
1.639070938E1;5.080495834E0;-5.606023312E0;-9.271546006E-1
1.640737536E1;5.601833344E0;-6.041768074E0;-5.937620401E-1
1.642404136E1;6.523601055E0;-6.262633324E0;-1.699883193E-1
1.644070734E1;7.562086105E0;-6.335656166E0;-5.243301988E-1
1.645737333E1;8.230667114E0;-6.295553207E0;-7.356184721E-1
1.647403932E1;8.553884506E0;-6.466140270E0;-9.439139962E-1
1.649070531E1;8.854954720E0;-6.719326973E0;-1.004966140E0
1.650737130E1;9.322422981E0;-6.964134216E0;-1.093551636E0
1.652403729E1;9.619303703E0;-6.803123951E0;-1.373074651E0
1.654070328E1;9.880870819E0;-6.771999359E0;-2.112883091E0
1.655736927E1;1.029147625E1;-6.928221226E0;-2.945466757E0
1.657403526E1;1.062367153E1;-7.137115479E0;-3.825934410E0
1.659070125E1;1.058835697E1;-7.047332764E0;-4.366425514E0
1.660736724E1;1.019810200E1;-6.843825340E0;-4.833893299E0
1.662403323E1;9.719860077E0;-6.745064735E0;-4.822520733E0
1.664069922E1;9.844358444E0;-7.484873295E0;-4.815338135E0
1.665736521E1;9.311050415E0;-8.137292862E0;-4.276044369E0
1.667403120E1;8.798092842E0;-8.584410667E0;-3.330334663E0
1.669069719E1;9.120711327E0;-8.933364868E0;-2.195482969E0
1.670736318E1;1.028489208E1;-8.834005356E0;-1.090558887E0
1.672402917E1;1.152329254E1;-8.422203064E0;-8.176198602E-1
1.674069516E1;1.237024117E1;-8.053496361E0;-1.446696401E0
1.675736115E1;1.232535076E1;-7.626131058E0;-2.244564056E0
1.677402714E1;1.163462353E1;-7.529165745E0;-3.003525972E0
1.679069313E1;1.095706367E1;-7.760804653E0;-3.144185305E0
1.680735912E1;1.051473522E1;-8.346785545E0;-2.718616009E0
1.682402510E1;1.014363384E1;-9.053074837E0;-1.827973008E0
1.684069110E1;9.787496567E0;-9.412205696E0;-8.212111592E-1
1.685735708E1;9.502586365E0;-9.466074944E0;-1.945288926E-1
1.687402307E1;9.127295494E0;-9.129091263E0;1.418564469E-1
1.689068906E1;8.670601845E0;-8.708310127E0;1.227028370E-1
1.690735505E1;8.152256966E0;-8.373122215E0;-9.696517140E-2
1.692402104E1;7.705738068E0;-8.057685852E0;-2.430114746E-1
1.694068703E1;7.304111004E0;-7.910442352E0;-2.579752207E-1
1.695735302E1;7.175422668E0;-7.879317760E0;-2.483984232E-1
1.697401901E1;7.080253124E0;-7.950545311E0;-2.867056429E-1
1.699068500E1;6.891110897E0;-8.085219383E0;-3.501519859E-1
1.700735099E1;6.494870663E0;-8.262989044E0;-3.459621370E-1
1.702401698E1;6.015431881E0;-8.429984093E0;-4.405331016E-1
1.704068297E1;5.102642536E0;-8.525752068E0;-3.052607179E-1
1.705734896E1;4.593276024E0;-8.092401505E0;-1.687912196E-1
1.707401495E1;4.410119534E0;-7.505223751E0;6.763619930E-2
1.709068094E1;4.389768600E0;-7.183802128E0;2.148796022E-1
1.710734693E1;4.376002312E0;-6.968922615E0;2.388216257E-1
1.712401292E1;4.230554581E0;-6.964134216E0;-2.573766708E-1
1.714067891E1;3.791218281E0;-7.108384609E0;-8.337807655E-1
1.715734490E1;3.278260708E0;-7.056311131E0;-1.647809267E0
1.717401089E1;2.555211782E0;-6.778583527E0;-3.025073767E0
1.719067688E1;1.904587507E0;-6.507440090E0;-3.927089453E0
1.720734286E1;1.777694821E0;-6.433818340E0;-3.949235678E0
1.722400886E1;1.838148355E0;-6.466140270E0;-3.047818661E0
1.724067484E1;1.854907751E0;-6.618770599E0;-2.106897593E0
1.725734083E1;1.844732404E0;-7.079055786E0;-1.547851443E0
1.727400682E1;2.401384354E0;-8.000823975E0;-1.703474522E0
1.729067281E1;3.397372246E0;-9.245808601E0;-2.432508945E0
1.730733880E1;4.520851135E0;-1.018732834E1;-3.204638958E0
1.732400479E1;5.692812920E0;-1.112166500E1;-3.396175146E0
1.734067078E1;6.588842869E0;-1.178306389E1;-2.775478363E0
1.735733677E1;7.463923931E0;-1.199255657E1;-1.947683096E0
1.737400276E1;8.248024940E0;-1.173936939E1;-1.286883354E0
1.739066875E1;9.207501411E0;-1.123898125E1;-1.416768909E0
1.740733474E1;9.999382973E0;-1.062905884E1;-1.872265697E0
1.742400073E1;1.084333992E1;-1.016997051E1;-2.267907619E0
1.744066672E1;1.128806210E1;-9.518747330E0;-2.309207439E0
1.745733271E1;1.144548130E1;-8.862137794E0;-2.258330822E0
1.747399870E1;1.146044540E1;-8.153453827E0;-2.337339401E0
1.749066469E1;1.121144772E1;-7.354987621E0;-2.237381458E0
1.750733068E1;1.077271080E1;-6.752247334E0;-1.982997537E0
1.752399667E1;1.005325317E1;-6.231508255E0;-1.670554280E0
1.754066266E1;9.125499725E0;-5.911283970E0;-1.471835494E0
1.755732865E1;7.831433773E0;-5.446210384E0;-1.850119352E0
1.757399464E1;6.857592106E0;-5.117606163E0;-2.214636564E0
1.759066063E1;6.054935932E0;-4.954201698E0;-2.163161278E0
1.760732661E1;5.652111530E0;-4.968566895E0;-1.548449993E0
1.762399260E1;5.572504520E0;-5.225345135E0;-9.301473498E-1
1.764065860E1;5.221155167E0;-5.480926037E0;-3.645172119E-1
1.765732458E1;4.981136799E0;-5.935225964E0;-1.185129806E-1
1.767399057E1;5.128978729E0;-6.407482147E0;2.400187254E-1
1.769065656E1;5.875370979E0;-6.782773495E0;6.057330370E-1
1.770732255E1;6.791152954E0;-6.868964672E0;8.104372621E-1
1.772398854E1;7.757213593E0;-6.797737122E0;2.657563984E-1
1.774065453E1;8.464699745E0;-6.562506676E0;-4.189853072E-1
1.775732052E1;8.796895981E0;-6.227917194E0;-1.224035621E0
1.777398651E1;8.893261909E0;-6.107009888E0;-1.887827992E0
1.779065250E1;9.040505409E0;-6.136339188E0;-2.491765499E0
1.780731849E1;9.358934402E0;-6.187215805E0;-3.153163671E0
1.782398448E1;9.521142006E0;-6.506243229E0;-3.617638826E0
1.784065047E1;9.852738380E0;-6.757035732E0;-3.933074951E0
1.785731646E1;1.022204399E1;-7.020398140E0;-3.929483652E0
1.787398245E1;1.039622211E1;-7.273584843E0;-3.861248732E0
1.789064844E1;1.041657257E1;-7.243657112E0;-3.968389273E0
1.790731443E1;1.049677849E1;-7.640496254E0;-4.344278812E0
1.792398042E1;9.996390343E0;-8.446743965E0;-4.234744072E0
1.794064641E1;9.637859344E0;-9.144054413E0;-3.361459255E0
1.795731240E1;1.024598598E1;-1.011011505E1;-2.401384354E0
1.797397839E1;1.129105568E1;-1.049797630E1;-1.497573137E0
1.799064438E1;1.241812611E1;-1.040520096E1;-1.300051570E0
1.800731037E1;1.268747330E1;-9.701904297E0;-1.762132406E0
1.802397636E1;1.230978775E1;-8.807669640E0;-2.472013235E0
1.804064235E1;1.140657520E1;-8.311470985E0;-3.055599928E0
1.805730833E1;1.043931770E1;-8.437765121E0;-2.949656487E0
1.807397432E1;9.691728592E0;-8.829216957E0;-2.214636564E0
1.809064031E1;9.270348549E0;-9.436147690E0;-1.363497853E0
1.810730630E1;8.882488251E0;-9.852140427E0;-6.087257862E-1
1.812397229E1;8.563461304E0;-1.008437729E1;-2.495955229E-1
1.814063828E1;7.885303497E0;-1.000776291E1;-2.172738016E-1
1.815730427E1;7.200561523E0;-9.835380554E0;-6.835445762E-1
1.817397026E1;6.603208065E0;-9.414599419E0;-1.045069098E0
1.819063625E1;6.336254597E0;-9.034520149E0;-1.291671872E0
1.820730224E1;6.466140270E0;-8.714894295E0;-1.321599364E0
1.822396823E1;6.479308128E0;-8.632294655E0;-1.011550188E0
1.824063422E1;6.303933144E0;-8.683171272E0;-5.488707423E-1
1.825730021E1;6.452373505E0;-8.795698166E0;-2.777273953E-1
1.827396620E1;6.206967831E0;-8.887875557E0;1.448491961E-1
1.829063219E1;5.716156483E0;-8.950124741E0;4.860229492E-1
1.830729818E1;5.518036366E0;-8.750208855E0;6.087257862E-1
1.832396417E1;5.275024891E0;-8.583212852E0;8.164227605E-1
1.834063016E1;5.138555527E0;-8.429385185E0;6.081272364E-1
1.835729615E1;4.899135113E0;-8.078036308E0;-2.992752008E-3
1.837396214E1;4.876988888E0;-7.653664112E0;-5.051765442E-1
1.839062813E1;4.821922302E0;-7.452551365E0;-5.087678432E-1
1.840729412E1;4.565144062E0;-7.541136742E0;1.735796183E-1
1.842396010E1;4.052784920E0;-7.855375767E0;8.445546627E-1
1.844062610E1;3.173514366E0;-7.987655640E0;1.307832718E0
1.845729208E1;2.464232206E0;-7.874529362E0;1.130661726E0
1.847395807E1;2.022501945E0;-7.475894928E0;3.477577865E-1
1.849062406E1;2.076969862E0;-7.102399349E0;-9.534908533E-1
1.850729005E1;2.862866640E0;-6.443994045E0;-2.050633669E0
1.852395604E1;4.486733913E0;-5.820304394E0;-2.606687069E0
1.854062203E1;6.307524204E0;-5.944802761E0;-2.361281395E0
1.855728802E1;6.028599739E0;-7.138312340E0;-1.972822189E0
1.857395401E1;2.196680069E0;-8.843582153E0;-5.009867191E0
1.859062000E1;-1.798045516E0;-1.017655468E1;-9.221267700E0
1.860728599E1;-7.451952696E-1;-1.079665279E1;-9.031527519E0
1.862395198E1;4.237737179E0;-1.096843624E1;-5.587468147E0
1.864061797E1;7.966706276E0;-1.038125896E1;-2.544437885E0
1.865728396E1;8.661025047E0;-9.852738380E0;-2.049436569E0
1.867394995E1;7.861959934E0;-9.622296333E0;-2.691681147E0
1.869061594E1;7.603984833E0;-9.555258751E0;-2.897582531E0
1.870728193E1;8.341997147E0;-9.499593735E0;-2.362478495E0
1.872394792E1;9.263765335E0;-9.247604370E0;-2.302623510E0
1.874061391E1;9.878476143E0;-8.883087158E0;-2.880823135E0
1.875727990E1;9.953294754E0;-8.491036415E0;-3.908534288E0
1.877394589E1;9.855133057E0;-7.955932140E0;-4.753088951E0
1.879061188E1;9.677961349E0;-7.353191853E0;-4.960785866E0
1.880727787E1;9.326014519E0;-6.773196697E0;-4.314949989E0
1.882394386E1;8.892065048E0;-6.203975201E0;-3.160346270E0
1.884060985E1;8.404845238E0;-5.875370979E0;-2.198475599E0
1.885727583E1;7.920019150E0;-5.562927723E0;-1.263539910E0
1.887394182E1;7.291541100E0;-5.351040840E0;-1.060631394E0
1.889060781E1;6.980295181E0;-5.290587425E0;-1.039083481E0
1.890727380E1;6.855197906E0;-5.352237701E0;-1.173757434E0
1.892393979E1;7.009624004E0;-5.555745125E0;-9.205705523E-1
1.894060578E1;7.353790283E0;-5.837662220E0;-6.093243361E-1
1.895727177E1;7.672817707E0;-6.096236229E0;-3.070563674E-1
1.897393776E1;7.814075947E0;-6.223727226E0;-2.082955539E-1
1.899060375E1;8.009801865E0;-6.345232964E0;-5.368997455E-1
1.900726974E1;8.408436775E0;-6.250661850E0;-6.787561774E-1
1.902393573E1;8.820239067E0;-6.068702698E0;-7.332242727E-1
1.904060172E1;8.922591209E0;-5.820902824E0;-7.128735781E-1
1.905726771E1;8.972869873E0;-5.543774128E0;-9.894038439E-1
1.907393370E1;9.133879662E0;-5.466560841E0;-1.640028119E0
1.909059969E1;9.134477615E0;-5.394136429E0;-2.487575531E0
1.910726568E1;9.339780807E0;-5.682637691E0;-3.327341795E0
1.912393167E1;9.677363396E0;-6.089652061E0;-3.643975019E0
1.914059766E1;9.959280968E0;-6.296750546E0;-3.786429882E0
1.915726365E1;1.046026707E1;-6.184821606E0;-3.976170540E0
1.917392964E1;1.100434971E1;-5.855618954E0;-4.513070107E0
1.919059563E1;1.144667816E1;-6.076483727E0;-5.313332081E0
1.920726162E1;1.119768143E1;-7.125144482E0;-5.789179802E0
1.922392760E1;1.033038139E1;-7.996035099E0;-4.759074211E0
1.924059360E1;1.047163963E1;-8.825626373E0;-3.337517262E0
1.925725958E1;1.139041424E1;-9.347561836E0;-1.990180135E0
1.927392557E1;1.248336792E1;-9.357138634E0;-9.804255962E-1
1.929059156E1;1.279820538E1;-8.593987465E0;-7.864952683E-1
1.930725755E1;1.254980659E1;-7.636904716E0;-1.744175911E0
1.932392354E1;1.218528938E1;-6.970718384E0;-2.660556555E0
1.934058953E1;1.138323212E1;-6.694188118E0;-3.023876667E0
1.935725552E1;1.041298199E1;-6.817489147E0;-2.980182648E0
1.937392151E1;9.839570045E0;-7.198167324E0;-2.767697096E0
1.939058750E1;9.376891136E0;-7.640496254E0;-2.434903145E0
1.940725349E1;8.868721962E0;-8.070854187E0;-2.136226416E0
1.942391948E1;8.444948196E0;-8.244433403E0;-1.701080322E0
1.944058547E1;8.016983986E0;-8.128912926E0;-1.277905107E0
1.945725146E1;7.723694801E0;-7.943362713E0;-1.073799491E0
1.947391745E1;7.520187378E0;-7.823053837E0;-9.720458984E-1
1.949058344E1;7.259818077E0;-7.735665798E0;-9.678560495E-1
1.950724943E1;7.152677536E0;-7.669825077E0;-8.714894056E-1
1.952391542E1;7.184400558E0;-7.708132267E0;-8.972271085E-1
1.954058141E1;7.155071735E0;-7.874529362E0;-9.062053561E-1
1.955724740E1;7.008427143E0;-8.112154007E0;-7.757213712E-1
1.957391339E1;6.741473198E0;-8.416217804E0;-7.433996201E-1
1.959057938E1;6.205172062E0;-8.391676903E0;-6.165069342E-1
1.960724536E1;6.286575317E0;-8.012794495E0;-5.919663906E-1
1.962391136E1;6.269815922E0;-7.475894928E0;-4.548983276E-1
1.964057734E1;6.284779549E0;-7.140706539E0;-2.831143439E-1
1.965724333E1;6.268020153E0;-7.040150166E0;-1.179144308E-1
1.967390932E1;6.062717438E0;-6.943184853E0;-2.214636654E-2
1.969057531E1;5.644928932E0;-6.971316814E0;-2.124854028E-1
1.970724130E1;5.032611847E0;-7.068880558E0;-4.854243994E-1
1.972390729E1;4.341286182E0;-7.003039837E0;-5.740098357E-1
1.974057328E1;3.812167645E0;-7.023390770E0;-7.158663273E-1
1.975723927E1;3.383605480E0;-6.984484673E0;-6.075286865E-1
1.977390526E1;3.119046211E0;-6.836044312E0;-2.436100245E-1
1.979057125E1;2.965817451E0;-6.740874767E0;5.985504389E-2
1.980723724E1;2.887407303E0;-6.806117058E0;2.992752194E-2
1.982390323E1;2.969408751E0;-7.090428352E0;-3.022679687E-1
1.984056922E1;3.441664934E0;-7.556699276E0;-1.628655672E0
1.985723521E1;4.301782131E0;-8.361150742E0;-3.584718466E0
1.987390120E1;4.987122059E0;-8.913014412E0;-4.641160011E0
1.989056719E1;5.968744755E0;-9.479841232E0;-4.238335609E0
1.990723318E1;6.441000938E0;-1.007719517E1;-3.466205597E0
1.992389917E1;6.048352242E0;-1.022324085E1;-3.851671934E0
1.994056516E1;5.863399982E0;-9.923966408E0;-4.536413670E0
1.995723115E1;6.317699909E0;-9.660005569E0;-5.021239281E0
1.997389714E1;7.123947144E0;-9.391256332E0;-5.201403141E0
1.999056313E1;8.082824707E0;-9.355342865E0;-4.799776077E0
2.000722912E1;8.571242332E0;-9.396642685E0;-4.097676277E0
2.002389510E1;8.526350975E0;-9.506177902E0;-3.828927040E0
2.004056110E1;8.647257805E0;-9.799467087E0;-3.354276657E0
2.005722708E1;8.670002937E0;-9.832986832E0;-2.267308950E0
2.007389307E1;8.609549522E0;-9.412803650E0;-1.295861721E0
2.009055906E1;8.273163795E0;-8.673594475E0;-8.146271110E-1
2.010722505E1;7.937975883E0;-7.756615162E0;-7.463923693E-1
2.012389104E1;7.595006466E0;-6.877344608E0;-9.876081944E-1
2.014055703E1;7.374141216E0;-6.378153324E0;-1.325789213E0
2.015722302E1;7.251438618E0;-6.163872242E0;-1.611297727E0
2.017388901E1;7.280169010E0;-5.956773758E0;-1.761533856E0
2.019055500E1;7.094019413E0;-6.066906929E0;-1.857301950E0
2.020722099E1;6.897096634E0;-6.326677799E0;-1.965041041E0
2.022388698E1;7.084442616E0;-6.567893982E0;-2.147598982E0
2.024055297E1;7.740454197E0;-6.666056156E0;-2.158372879E0
2.025721896E1;8.310274124E0;-6.604405403E0;-2.249951124E0
2.027388495E1;8.343792915E0;-6.540360451E0;-2.321178436E0
2.029055094E1;8.397064209E0;-6.472724438E0;-2.342127800E0
2.030721693E1;8.453327179E0;-6.371569157E0;-2.097320795E0
2.032388292E1;8.476671219E0;-6.139331818E0;-1.753154159E0
2.034054891E1;8.245032310E0;-6.087257862E0;-1.553238392E0
2.035721490E1;7.634510517E0;-6.082469463E0;-2.049436569E0
2.037388089E1;7.429806232E0;-6.126163483E0;-3.142988205E0
2.039054688E1;7.137115479E0;-6.290166378E0;-4.528033733E0
2.040721286E1;7.079055786E0;-6.673837185E0;-5.260659695E0
2.042387886E1;7.295132637E0;-7.028777599E0;-4.677073002E0
2.044054484E1;7.963713169E0;-7.381323814E0;-3.848679304E0
2.045721083E1;8.364742279E0;-7.446565628E0;-3.168127298E0
2.047387682E1;8.437167168E0;-7.243657112E0;-2.924517393E0
2.049054281E1;8.440159798E0;-7.196970463E0;-2.999336243E0
2.050720880E1;8.638279915E0;-7.786542416E0;-3.225588322E0
2.052387479E1;8.990227699E0;-8.952518463E0;-3.387196779E0
2.054054078E1;9.345766068E0;-9.991003990E0;-3.687669277E0
2.055720677E1;9.804854393E0;-1.076253510E1;-4.401141167E0
2.057387276E1;1.074816990E1;-1.054885292E1;-5.203797340E0
2.059053875E1;1.180999851E1;-9.880870819E0;-5.784391403E0
2.060720474E1;1.209730244E1;-9.109937668E0;-6.028599739E0
2.062387073E1;1.152029991E1;-8.485051155E0;-5.728725910E0
2.064053672E1;1.067813969E1;-8.365341187E0;-5.076904774E0
2.065720271E1;9.670779228E0;-8.455122948E0;-4.064755917E0
2.067386870E1;8.739435196E0;-8.627506256E0;-2.679111719E0
2.069053469E1;7.993640900E0;-9.009381294E0;-1.407790542E0
2.070720068E1;7.189787865E0;-9.433155060E0;-3.938461840E-1
2.072386667E1;6.423044682E0;-9.604340553E0;3.435679376E-1
2.074053266E1;5.831676960E0;-9.642647743E0;7.044938207E-1
2.075719865E1;4.953004837E0;-9.287707329E0;1.039682031E0
2.077386464E1;4.777030945E0;-8.544307709E0;8.056488633E-1
2.079053063E1;5.473743439E0;-7.767987251E0;2.100912035E-1
2.080719662E1;6.081272125E0;-7.120954514E0;-4.399345517E-1
2.082386261E1;6.485892296E0;-6.782773495E0;-9.373299479E-1
2.084052860E1;6.528987885E0;-6.685808182E0;-1.244386315E0
2.085719458E1;6.449979305E0;-6.812102318E0;-1.414973259E0
2.087386057E1;6.397306919E0;-6.989273548E0;-1.389834046E0
2.089052656E1;6.367978096E0;-7.313088894E0;-1.233612418E0
2.090719255E1;5.918466568E0;-7.574655533E0;-6.607996821E-1
2.092385854E1;5.591658115E0;-7.536348343E0;-1.478419602E-1
2.094052453E1;5.570708752E0;-7.325658798E0;1.244984865E-1
2.095719052E1;5.385756493E0;-7.124545574E0;1.580173075E-1
2.097385651E1;5.144540787E0;-7.229890347E0;3.543418646E-1
2.099052250E1;4.703409195E0;-7.459733963E0;6.212953329E-1
2.100718849E1;4.122216702E0;-7.701548100E0;7.493851185E-1
2.102385448E1;3.542819977E0;-7.765593052E0;7.146692276E-1
2.104052047E1;3.201646328E0;-7.762001991E0;2.011129409E-1
2.105718646E1;3.004723072E0;-7.647080421E0;-2.238578647E-1
2.107385245E1;3.014898539E0;-7.736264229E0;-1.011550203E-1
2.109051844E1;3.403357744E0;-7.950545311E0;6.943184733E-1
2.110718443E1;3.175908566E0;-7.955333710E0;1.066018343E0
2.112385042E1;3.221398354E0;-8.203133583E0;6.709750295E-1
2.114051641E1;3.271078110E0;-8.739435196E0;-6.308721304E-1
2.115718240E1;3.618237257E0;-9.660005569E0;-2.886210203E0
2.117384839E1;3.911526918E0;-1.036390018E1;-5.874772549E0
2.119051438E1;4.495113850E0;-1.045547867E1;-8.107964516E0
2.120718036E1;5.347449303E0;-1.022084713E1;-8.358757019E0
2.122384636E1;6.283582211E0;-1.036928749E1;-7.085041523E0
2.124051235E1;6.476315498E0;-1.050096893E1;-4.991910458E0
2.125717833E1;6.198588371E0;-1.042914295E1;-2.926312923E0
2.127384432E1;5.881356239E0;-1.004786587E1;-1.261145711E0
2.129051031E1;6.413467884E0;-9.639056206E0;-4.794389009E-1
2.130717630E1;7.225700855E0;-9.400234222E0;-6.446388364E-1
2.132384229E1;7.903858185E0;-9.134477615E0;-1.145026922E0
2.134050828E1;8.332420349E0;-8.907029152E0;-2.226009130E0
2.135717427E1;8.243835449E0;-8.630498886E0;-3.626616955E0
2.137384026E1;8.018181801E0;-8.248024940E0;-4.919486046E0
2.139050625E1;7.839813232E0;-7.782352448E0;-5.363011837E0
2.140717224E1;7.626729488E0;-7.278971672E0;-5.051765442E0
2.142383823E1;7.431602001E0;-6.722319603E0;-4.160523891E0
2.144050422E1;7.110180378E0;-6.181230068E0;-2.992153645E0
2.145717021E1;6.870760441E0;-5.908291340E0;-1.978807688E0
2.147383620E1;6.580463409E0;-5.838260651E0;-1.381454349E0
2.149050219E1;6.281786919E0;-5.829881191E0;-1.116895080E0
2.150716818E1;6.051344872E0;-5.905298710E0;-1.340752959E0
2.152383417E1;5.936423302E0;-6.005855083E0;-1.416170359E0
2.154050016E1;5.995679379E0;-6.255450726E0;-1.524507880E0
2.155716615E1;6.087856293E0;-6.409277916E0;-1.569997787E0
2.157383214E1;6.251859188E0;-6.514024258E0;-1.562216640E0
2.159049813E1;6.491279125E0;-6.552929878E0;-1.646612167E0
2.160716412E1;6.722319603E0;-6.422446251E0;-1.754351258E0
2.162383010E1;6.649895191E0;-6.229114056E0;-2.005742550E0
2.164049610E1;6.403891087E0;-5.967547894E0;-2.149394512E0
2.165716208E1;6.248267651E0;-5.965752125E0;-1.981201887E0
2.167382807E1;6.167463779E0;-6.246472359E0;-1.628057122E0
2.169049406E1;6.199186802E0;-6.713341713E0;-1.349731207E0
2.170716005E1;6.205172062E0;-7.062894821E0;-1.300051570E0
2.172382604E1;6.242880821E0;-7.246650219E0;-1.349731207E0
2.174049203E1;6.667253017E0;-7.445967197E0;-1.449090600E0
2.175715802E1;6.889315605E0;-7.599794865E0;-1.426944256E0
2.177382401E1;6.896498203E0;-7.801506042E0;-1.672349930E0
2.179049000E1;6.856993675E0;-7.896077156E0;-2.246359825E0
2.180715599E1;6.859986305E0;-7.836820602E0;-2.817975283E0
2.182382198E1;6.968324184E0;-7.598597527E0;-3.224989653E0
2.184048797E1;7.274781704E0;-7.592013359E0;-3.341108561E0
2.185715396E1;7.873930931E0;-8.284536362E0;-3.473388195E0
2.187381995E1;8.132504463E0;-9.211690903E0;-3.503914118E0
2.189048594E1;8.093000412E0;-1.004367638E1;-3.139995575E0
2.190715193E1;8.744821548E0;-1.100734234E1;-2.816179752E0
2.192381792E1;9.580398560E0;-1.151132202E1;-2.406172752E0
2.194048391E1;1.029566574E1;-1.105941582E1;-2.038662672E0
2.195714990E1;1.070208168E1;-9.822212219E0;-2.208651066E0
2.197381589E1;1.072123528E1;-8.382100105E0;-2.806602955E0
2.199048188E1;1.056980228E1;-7.346607685E0;-3.448249102E0
2.200714786E1;1.017416000E1;-7.190984726E0;-3.539228678E0
2.202381386E1;1.005744267E1;-7.779359818E0;-3.245340347E0
2.204047984E1;9.728838921E0;-8.482058525E0;-2.797624588E0
2.205714583E1;9.151237488E0;-9.185953140E0;-2.250549555E0
2.207381182E1;8.981847763E0;-9.483432770E0;-1.416768909E0
2.209047781E1;9.213486671E0;-9.412205696E0;-4.991910458E-1
2.210714380E1;9.102754593E0;-9.286509514E0;2.136825025E-1
2.212380979E1;8.596381187E0;-9.099761963E0;8.427590132E-1
2.214047578E1;7.824251175E0;-8.736441612E0;9.247604012E-1
2.215714177E1;6.923432827E0;-8.568847656E0;5.410895944E-1
2.217380776E1;6.255450726E0;-8.304886818E0;1.490390599E-1
2.219047375E1;6.296152115E0;-8.057685852E0;-2.633621916E-2
2.220713974E1;6.339247704E0;-7.831433773E0;-2.501940727E-1
2.222380573E1;6.322488308E0;-7.867346764E0;-9.660604000E-1
2.224047172E1;5.601234913E0;-7.756615162E0;-1.266532660E0
2.225713771E1;5.331887245E0;-7.523180485E0;-1.211466074E0
2.227380370E1;4.963180065E0;-7.138910770E0;-8.104372621E-1
2.229046969E1;4.732139587E0;-6.740276337E0;-7.541735172E-1
2.230713568E1;4.390965939E0;-6.370372295E0;-1.206079125E0
2.232380167E1;3.780444384E0;-6.208763599E0;-2.118269920E0
2.234046766E1;2.902370930E0;-5.930437565E0;-2.827552319E0
2.235713365E1;2.522890091E0;-5.641936302E0;-2.850895643E0
2.237379964E1;2.576161146E0;-5.492897034E0;-2.302623510E0
2.239046563E1;2.809595585E0;-5.416282654E0;-1.547851443E0
2.240713162E1;2.942473888E0;-5.395333767E0;-1.179742932E0
2.242379760E1;3.068169594E0;-5.574300289E0;-1.296460271E0
2.244046360E1;3.299209833E0;-5.856815815E0;-1.579574585E0
2.245712958E1;3.643975019E0;-5.916072369E0;-1.938704848E0
2.247379557E1;4.015674591E0;-5.963956356E0;-2.067393064E0
2.249046156E1;4.611831188E0;-6.271012783E0;-2.059013367E0
2.250712755E1;5.588066578E0;-6.903081894E0;-2.028487444E0
2.252379354E1;6.801927090E0;-7.967903137E0;-2.231994629E0
2.254045953E1;7.462128162E0;-9.193734169E0;-2.726995707E0
2.255712552E1;7.483675957E0;-9.640851974E0;-2.751536369E0
2.257379151E1;7.936778545E0;-9.941324234E0;-2.695272446E0
2.259045750E1;8.726266861E0;-1.004008484E1;-2.321178436E0
2.260712349E1;9.191938400E0;-1.038066006E1;-2.245162725E0
2.262378948E1;9.162011147E0;-1.058057594E1;-2.495955229E0
2.264045547E1;8.957905769E0;-1.060032845E1;-2.977189779E0
2.265712146E1;8.842984200E0;-9.968857765E0;-2.732981205E0
2.267378745E1;9.126098633E0;-9.338583946E0;-2.415749550E0
2.269045344E1;9.845556259E0;-8.711302757E0;-2.000954151E0
2.270711943E1;1.030464458E1;-8.119935036E0;-1.913565755E0
2.272378542E1;1.026573849E1;-7.701548100E0;-2.243366957E0
2.274045141E1;9.832387924E0;-7.395090580E0;-2.767697096E0
2.275711740E1;9.179967880E0;-7.240066051E0;-3.159747601E0
2.277378339E1;8.480860710E0;-6.964732647E0;-3.128024578E0
2.279044938E1;7.870938301E0;-6.596025467E0;-2.896385431E0
2.280711536E1;7.606977463E0;-6.242880821E0;-2.530072689E0
2.282378136E1;7.246051311E0;-5.776011467E0;-2.082356930E0
2.284044734E1;6.801927090E0;-5.356427670E0;-1.799841166E0
2.285711333E1;6.338648796E0;-4.984129429E0;-1.632246971E0
2.287377932E1;5.988496780E0;-4.783016682E0;-1.498770237E0
2.289044531E1;5.887341976E0;-4.701613426E0;-1.194706678E0
2.290711130E1;6.071695328E0;-4.831499100E0;-9.331400990E-1
2.292377729E1;6.253056526E0;-5.105635166E0;-6.889315248E-1
2.294044328E1;6.359598160E0;-5.361216068E0;-7.751228213E-1
2.295710927E1;6.737882137E0;-5.705382824E0;-1.042674899E0
2.297377526E1;7.370550156E0;-6.163872242E0;-1.272518158E0
2.299044125E1;7.835623741E0;-6.422446251E0;-1.644816518E0
2.300710724E1;7.924807549E0;-6.321290970E0;-1.900996208E0
2.302377323E1;8.183979988E0;-6.172850609E0;-2.057217836E0
2.304043922E1;8.482656479E0;-5.962759495E0;-2.091335297E0
2.305710521E1;8.626308441E0;-5.966350555E0;-1.898601890E0
2.307377120E1;8.364143372E0;-6.309918404E0;-1.543063045E0
2.309043719E1;7.938574314E0;-6.681618214E0;-1.520318031E0
2.310710318E1;7.753023624E0;-7.075464725E0;-1.915959954E0
2.312376917E1;7.895478725E0;-7.422025204E0;-2.230198860E0
2.314043516E1;8.121131897E0;-7.488464355E0;-2.470217705E0
2.315710115E1;8.573636055E0;-7.426813602E0;-2.921524525E0
2.317376714E1;8.987235069E0;-7.166444302E0;-3.230376720E0
2.319043313E1;9.575610161E0;-7.463923931E0;-3.550002575E0
2.320709912E1;9.452906609E0;-8.122927666E0;-3.557783842E0
2.322376511E1;9.279327393E0;-8.818443298E0;-3.170521498E0
2.324043110E1;9.586981773E0;-9.783307076E0;-2.706046581E0
2.325709708E1;1.009036350E1;-1.020169353E1;-2.122459888E0
2.327376307E1;1.084693050E1;-9.876082420E0;-1.893813491E0
2.329042906E1;1.141256142E1;-9.080010414E0;-2.029684544E0
2.330709505E1;1.135749435E1;-8.246828079E0;-2.611475468E0
2.332376104E1;1.073260784E1;-7.697957039E0;-3.042431831E0
2.334042703E1;9.968857765E0;-7.617751122E0;-3.291428804E0
2.335709302E1;9.378686905E0;-7.851784706E0;-3.003525972E0
2.337375901E1;8.901641846E0;-8.277952194E0;-2.374449492E0
2.339042500E1;8.572439194E0;-8.703521729E0;-1.466448545E0
2.340709099E1;8.261791229E0;-8.936956406E0;-6.422445774E-1
2.342375698E1;7.807491779E0;-8.869319916E0;-1.711854190E-1
2.344042297E1;7.446565628E0;-8.677783966E0;1.430535465E-1
2.345708896E1;7.043142796E0;-8.306084633E0;3.435679376E-1
2.347375495E1;6.941987991E0;-8.023568153E0;3.303998411E-1
2.349042094E1;6.880337238E0;-7.820659637E0;2.274491638E-1
2.350708693E1;6.900687695E0;-7.712920666E0;3.112462163E-2
2.352375292E1;6.855197906E0;-7.632715225E0;-1.436521020E-2
2.354041891E1;6.754641533E0;-7.672219276E0;-6.045359373E-2
2.355708490E1;6.593032837E0;-7.778761387E0;-6.883329898E-2
2.357375089E1;6.167463779E0;-7.947552681E0;-1.628057212E-1
2.359041688E1;5.679046631E0;-7.764994621E0;3.531447425E-2
2.360708287E1;5.428852558E0;-7.540538311E0;-1.939303428E-1
2.362374886E1;5.371990204E0;-7.295731068E0;2.334346622E-2
2.364041485E1;5.421669960E0;-7.113173485E0;5.315127969E-1
2.365708083E1;5.361814499E0;-6.995258808E0;1.092953086E0
2.367374682E1;5.078101635E0;-7.135319710E0;1.141435623E0
2.369041281E1;4.388571739E0;-7.180211067E0;6.775590777E-1
2.370707880E1;3.550002575E0;-7.040748596E0;-9.457096457E-2
2.372374479E1;2.983175278E0;-6.710947514E0;-7.846996188E-1
2.374041078E1;2.837727547E0;-6.605602264E0;-1.298255920E0
2.375707677E1;2.853289843E0;-6.566696644E0;-1.437718153E0
2.377374276E1;2.951452255E0;-6.613982201E0;-1.380855799E0
2.379040875E1;2.898181200E0;-6.799532890E0;-1.400009394E0
2.380707474E1;2.439092875E0;-6.894104004E0;-1.301847219E0
2.382374073E1;2.322375536E0;-7.260416508E0;-1.569997787E0
2.384040672E1;2.830544949E0;-7.955333710E0;-2.351704597E0
2.385707271E1;4.176086426E0;-8.925583839E0;-3.714603901E0
2.387373870E1;5.578489780E0;-9.684545517E0;-5.196614742E0
2.389040469E1;5.928043365E0;-1.025915432E1;-5.788581371E0
2.390707068E1;5.770624638E0;-1.097621727E1;-5.000290394E0
2.392373667E1;5.563526154E0;-1.146762753E1;-3.249530315E0
2.394040266E1;6.001066685E0;-1.159092903E1;-1.452083349E0
2.395706865E1;6.890512466E0;-1.130601883E1;-5.614402890E-1
2.397373464E1;8.003816605E0;-1.090977859E1;-7.194576263E-1
2.399040063E1;9.104550362E0;-1.059972954E1;-1.541865945E0
2.400706662E1;1.007599831E1;-1.028429317E1;-1.927930951E0
2.402373261E1;1.065300083E1;-9.681552887E0;-1.818396211E0
2.404039860E1;1.103966427E1;-9.108740807E0;-2.131438017E0
2.405706458E1;1.107437992E1;-8.475474358E0;-2.861071110E0
2.407373057E1;1.079844856E1;-7.720103264E0;-3.182492495E0
2.409039656E1;1.036449909E1;-6.962338448E0;-3.197456360E0
2.410706255E1;9.894637108E0;-6.206967831E0;-2.968211651E0
2.412372854E1;9.293692589E0;-5.634753704E0;-2.673724651E0
2.414039453E1;8.193556786E0;-5.279813290E0;-2.500743628E0
2.415706052E1;6.986878872E0;-5.047575951E0;-2.428318977E0
2.417372651E1;6.266822815E0;-4.955399036E0;-2.100313425E0
2.419039250E1;5.932831764E0;-4.984129429E0;-1.631049871E0
2.420705849E1;5.545569897E0;-4.978742599E0;-1.622670174E0
2.422372448E1;5.334879875E0;-5.120000362E0;-1.933916450E0
2.424039047E1;5.264250755E0;-5.337872505E0;-1.968033791E0
2.425705646E1;5.190030575E0;-5.717353821E0;-1.635838270E0
2.427372245E1;5.552153587E0;-6.276998520E0;-7.727286220E-1
2.429038844E1;5.849034786E0;-6.613982201E0;-5.626374111E-2
2.430705443E1;6.179434776E0;-6.696582317E0;3.142389655E-1
2.432372042E1;6.595427036E0;-6.534973621E0;5.979518890E-1
2.434038641E1;7.155071735E0;-6.414066315E0;3.926490843E-1
2.435705240E1;7.684190273E0;-6.304531574E0;-2.035071515E-2
2.437371839E1;8.257002831E0;-6.295553207E0;-8.954314590E-1
2.439038438E1;8.637083054E0;-6.320692539E0;-1.943493247E0
2.440705036E1;8.905233383E0;-6.542156219E0;-3.014898539E0
2.442371636E1;9.152434349E0;-6.634333134E0;-3.426102638E0
2.444038234E1;9.865906715E0;-6.652289391E0;-3.605667830E0
2.445704833E1;1.090139866E1;-6.651690960E0;-3.464409828E0
2.447371432E1;1.136527538E1;-6.333261967E0;-3.118447781E0
2.449038031E1;1.124736118E1;-6.266224384E0;-3.256712914E0
2.450704630E1;1.099297714E1;-6.750451565E0;-3.822343111E0
2.452371229E1;1.099058247E1;-7.931391716E0;-4.097077847E0
2.454037828E1;1.061768627E1;-8.556278229E0;-4.070741653E0
2.455704427E1;1.074697304E1;-9.392453194E0;-3.889380693E0
2.457371026E1;1.117673206E1;-9.953294754E0;-2.762310266E0
2.459037625E1;1.183214474E1;-1.009574986E1;-1.227028370E0
2.460704224E1;1.204463005E1;-9.758766174E0;-1.352723986E-1
2.462370823E1;1.158614063E1;-9.139266014E0;1.663970202E-1
2.464037422E1;1.066497135E1;-8.597578049E0;4.189853091E-3
2.465704021E1;9.658209801E0;-8.333617210E0;-3.842693865E-1
2.467370620E1;8.836400032E0;-8.337807655E0;-4.638765752E-1
2.469037219E1;8.300697327E0;-8.538920403E0;-3.070563674E-1
2.470703818E1;7.902661324E0;-8.823830605E0;-8.978256024E-3
2.472370417E1;7.726089001E0;-9.139864922E0;4.979939461E-1
2.474037016E1;7.467514992E0;-9.198522568E0;1.075595140E0
2.475703615E1;7.198765755E0;-9.016563416E0;1.344344258E0
2.477370214E1;7.038354397E0;-8.756793022E0;1.445499301E0
2.479036813E1;6.845621109E0;-8.386888504E0;1.373074651E0
2.480703412E1;6.544550419E0;-7.988852501E0;7.015010715E-1
2.482370010E1;6.443395138E0;-7.588422298E0;-5.805939063E-2
2.484036610E1;6.487688065E0;-7.318476200E0;-4.770447016E-1
2.485703208E1;6.673238754E0;-7.187393665E0;-5.183446407E-1
2.487369807E1;6.771999359E0;-7.306505203E0;-3.992331326E-1
2.489036406E1;6.241085052E0;-7.472303391E0;1.933317930E-1
2.490703005E1;5.671265125E0;-7.463923931E0;6.482301354E-1
2.492369604E1;5.114613533E0;-7.313088894E0;7.224503756E-1
2.494036203E1;4.795586109E0;-7.153874874E0;5.985504389E-1
2.495702802E1;4.676474571E0;-6.987477779E0;3.369838893E-1
2.497369401E1;4.568136692E0;-6.814496517E0;1.250970364E-1
2.499036000E1;4.335300922E0;-6.736086369E0;-4.004302323E-1
2.500702599E1;4.036623955E0;-6.729502201E0;-6.703764796E-1
2.502369198E1;3.832518339E0;-6.745663166E0;-7.547720671E-1
2.504035797E1;3.630208254E0;-6.829460144E0;-6.200982332E-1
2.505702396E1;3.421314240E0;-7.142502308E0;-4.267664552E-1
2.507368995E1;3.125031710E0;-7.337030888E0;-2.274491638E-2
2.509035594E1;2.850297213E0;-7.365162849E0;-8.978256024E-3
2.510702193E1;2.729988575E0;-7.261613846E0;-3.046621680E-1
2.512368792E1;2.763507366E0;-7.207744122E0;-7.691373229E-1
2.514035391E1;3.044826031E0;-7.378331184E0;-1.171961784E0
2.515701990E1;3.349488258E0;-7.709928036E0;-1.732803464E0
2.517368589E1;3.801393747E0;-8.179191589E0;-2.673724651E0
2.519035188E1;4.450820923E0;-8.731653214E0;-3.950432777E0
2.520701786E1;5.250484467E0;-9.412803650E0;-5.263053894E0
2.522368386E1;6.005256176E0;-1.008437729E1;-5.820902824E0
2.524034984E1;6.803123951E0;-1.121743393E1;-5.212177277E0
2.525701583E1;7.022193432E0;-1.226729107E1;-3.690063477E0
2.527368182E1;7.047931194E0;-1.294006157E1;-1.584961534E0
2.529034781E1;7.362768650E0;-1.264557457E1;3.579331636E-1
2.530701380E1;8.271368027E0;-1.188002872E1;1.471835494E0
2.532367979E1;9.599552155E0;-1.104684639E1;1.202487826E0
2.534034578E1;1.034295177E1;-1.019989777E1;-1.616086066E-2
2.535701177E1;1.048839951E1;-9.381679535E0;-1.133055925E0
2.537367776E1;1.045188713E1;-8.570643425E0;-1.943493247E0
2.539034375E1;1.042315674E1;-7.791330814E0;-2.634819031E0
2.540700974E1;1.016278744E1;-7.093420982E0;-3.274669409E0
2.542367573E1;9.704298019E0;-6.539762020E0;-3.649960518E0
2.544034172E1;9.260771751E0;-6.212354660E0;-3.593696833E0
2.545700771E1;8.754997253E0;-6.102221489E0;-3.180696964E0
2.547367370E1;7.942165375E0;-6.017826080E0;-2.731185675E0
2.549033969E1;7.163451672E0;-6.032789707E0;-2.042253971E0
2.550700568E1;6.568492413E0;-6.111798286E0;-1.206079125E0
2.552367167E1;6.141127586E0;-6.099228859E0;-5.363011956E-1
2.554033766E1;6.159682274E0;-6.171054840E0;1.197100803E-2
2.555700365E1;6.307524204E0;-6.255450726E0;3.555389643E-1
2.557366964E1;6.427833080E0;-6.198588371E0;3.298012912E-1
2.559033563E1;6.470330238E0;-6.297947407E0;-4.668693244E-2
2.560700162E1;6.567295074E0;-6.374562263E0;-2.938882709E-1
2.562366760E1;6.986878872E0;-6.520608425E0;-5.386953950E-1
2.564033360E1;7.207145691E0;-6.399701118E0;-8.517372608E-1
2.565699958E1;7.346607685E0;-6.189610004E0;-1.407790542E0
2.567366557E1;7.621941090E0;-5.824494362E0;-1.790862918E0
2.569033156E1;7.616554260E0;-5.504868031E0;-2.303221941E0
2.570699755E1;7.320271492E0;-5.448604584E0;-2.588132143E0
2.572366354E1;6.983287811E0;-5.546766758E0;-2.643797159E0
2.574032953E1;6.980295181E0;-5.784391403E0;-2.615665436E0
2.575699552E1;7.133523941E0;-6.239289761E0;-2.554613113E0
2.577366151E1;7.385513783E0;-6.809708118E0;-2.513911724E0
2.579032750E1;7.570465565E0;-7.298125267E0;-2.719214678E0
2.580699349E1;7.789535046E0;-7.615356922E0;-3.043628931E0
2.582365948E1;8.226476669E0;-7.572859764E0;-3.150170803E0
2.584032547E1;8.859743118E0;-7.170035362E0;-2.898779631E0
2.585699146E1;9.399636269E0;-7.177816868E0;-2.880823135E0
2.587365745E1;9.536704063E0;-7.744644165E0;-3.041234732E0
2.589032344E1;9.094375610E0;-8.145073891E0;-2.545634985E0
2.590698943E1;9.256582260E0;-8.772355080E0;-2.294842243E0
2.592365542E1;9.671976089E0;-9.189544678E0;-2.243965626E0
2.594032141E1;1.047523117E1;-9.351752281E0;-2.546233416E0
2.595698740E1;1.141375828E1;-9.577404976E0;-2.770091295E0
2.597365339E1;1.176750088E1;-9.498396873E0;-2.873640537E0
2.599031938E1;1.145984650E1;-9.030330658E0;-2.981379747E0
2.600698537E1;1.099537086E1;-8.591592789E0;-3.107075214E0
2.602365136E1;1.043393135E1;-8.401852608E0;-3.152565002E0
2.604031735E1;9.749189377E0;-8.495225906E0;-2.962824583E0
2.605698333E1;9.198522568E0;-9.025542259E0;-2.353500366E0
2.607364932E1;8.626308441E0;-9.691728592E0;-1.409586191E0
2.609031531E1;7.875726700E0;-1.001075554E1;-4.752490520E-1
2.610698130E1;7.243657112E0;-9.809044838E0;2.334346622E-1
2.612364729E1;6.829460144E0;-9.227252960E0;7.003039718E-1
2.614031328E1;6.806715488E0;-8.500613213E0;8.984242082E-1
2.615697927E1;6.854599476E0;-7.870339394E0;7.398083210E-1
2.617364526E1;6.817489147E0;-7.468113422E0;3.567360640E-1
2.619031125E1;6.849212646E0;-7.277175903E0;1.496376097E-2
2.620697724E1;6.884527206E0;-7.166444302E0;-1.274912357E-1
2.622364323E1;6.771400928E0;-7.162254333E0;-4.950011969E-1
2.624030922E1;6.255450726E0;-7.159261703E0;-9.684545994E-1
2.625697521E1;5.850830555E0;-7.206547260E0;-8.487445116E-1
2.627364120E1;5.792770863E0;-7.116764545E0;-4.453215301E-1
2.629030719E1;5.814917564E0;-7.000047207E0;-1.795651317E-1
2.630697318E1;5.527613163E0;-6.995258808E0;-2.088941038E-1
2.632363917E1;5.064335346E0;-6.879738808E0;-1.592144072E-1
2.634030516E1;4.762067318E0;-6.671442986E0;1.616086066E-2
2.635697115E1;4.537611008E0;-6.412270546E0;3.770867586E-1
2.637363714E1;4.275445461E0;-6.291962147E0;6.691793799E-1
2.639030313E1;3.992331266E0;-6.320094109E0;6.799532771E-1
2.640696912E1;3.628412724E0;-6.557119846E0;2.890998423E-1
2.642363511E1;3.163338900E0;-6.782175064E0;-1.837549806E-1
2.644030110E1;2.629431963E0;-6.913856030E0;-8.254010081E-1
2.645696708E1;2.404975653E0;-6.846219540E0;-1.416768909E0
2.647363307E1;2.773084164E0;-6.601412773E0;-1.995567083E0
2.649029906E1;3.123236179E0;-6.482301235E0;-2.498948097E0
2.650696505E1;3.392583847E0;-6.620566368E0;-3.029263735E0
2.652363104E1;3.761290789E0;-6.950367451E0;-3.509301186E0
2.654029703E1;4.641160011E0;-7.659051418E0;-4.271854401E0
2.655696302E1;5.661688328E0;-8.759186745E0;-4.923676014E0
2.657362901E1;6.294954777E0;-9.708487511E0;-4.785410881E0
2.659029500E1;6.991068840E0;-1.064821243E1;-3.878008127E0
2.660696099E1;7.416638374E0;-1.111987019E1;-2.580949545E0
2.662362698E1;7.747038364E0;-1.109532928E1;-9.301473498E-1
2.664029297E1;8.291719437E0;-1.071465111E1;3.184288144E-1
2.665695896E1;9.051279068E0;-1.007360363E1;5.285200477E-1
2.667362495E1;9.982624054E0;-9.405022621E0;-4.064157307E-1
2.669029094E1;1.069070911E1;-8.817246437E0;-1.542464495E0
2.670695693E1;1.079006863E1;-8.309077263E0;-2.300827742E0
2.672362292E1;1.045248604E1;-7.876325130E0;-2.874837637E0
2.674028891E1;9.941324234E0;-7.596801758E0;-3.432088137E0
2.675695490E1;9.548076630E0;-7.239467621E0;-4.220378876E0
2.677362089E1;9.280524254E0;-6.908469200E0;-4.575319290E0
2.679028688E1;9.060855865E0;-6.621763229E0;-4.250905037E0
2.680695286E1;8.673594475E0;-6.243479252E0;-3.643376350E0
2.682361886E1;8.078036308E0;-6.038775444E0;-3.240551949E0
2.684028485E1;7.472901821E0;-6.067505836E0;-2.565985680E0
2.685695083E1;6.971316814E0;-5.993285179E0;-1.600523829E0
2.687361682E1;6.714538574E0;-5.847239017E0;-1.034295082E0
2.689028281E1;6.723516941E0;-5.628767967E0;-6.536170840E-1
2.690694880E1;6.624157429E0;-5.491700172E0;-7.350199223E-1
2.692361479E1;6.622362137E0;-5.503072739E0;-8.816647530E-1
2.694028078E1;6.616974831E0;-5.682637691E0;-1.300650120E0
2.695694677E1;6.430825710E0;-5.883152008E0;-1.771110654E0
2.697361276E1;6.317699909E0;-5.971737385E0;-1.997961283E0
2.699027875E1;6.473921299E0;-6.067505836E0;-1.777694821E0
2.700694474E1;6.664858818E0;-6.158485413E0;-1.241992116E0
2.702361073E1;6.904279232E0;-6.291363716E0;-8.583213091E-1
2.704027672E1;7.014412403E0;-6.185420036E0;-7.410054207E-1
2.705694271E1;6.982090473E0;-6.101623058E0;-9.020155072E-1
2.707360870E1;6.956353188E0;-6.155492783E0;-1.197699428E0
2.709027469E1;7.050325394E0;-6.352415562E0;-1.429338455E0
2.710694068E1;7.264008045E0;-6.571485043E0;-1.701678872E0
2.712360667E1;7.594407558E0;-6.869563103E0;-2.092532396E0
2.714027266E1;8.027758598E0;-7.167641163E0;-2.572569609E0
2.715693865E1;8.328828812E0;-7.388506413E0;-3.132812977E0
2.717360464E1;8.657433510E0;-7.421426773E0;-3.559579372E0
2.719027063E1;9.058462143E0;-7.220912457E0;-3.797203779E0
2.720693662E1;9.211092949E0;-6.834847450E0;-3.889979124E0
2.722360260E1;9.507973671E0;-7.054515362E0;-4.022857189E0
2.724026860E1;9.605537415E0;-7.973888874E0;-4.099472046E0
2.725693458E1;9.405022621E0;-8.722675323E0;-3.651157618E0
2.727360057E1;9.740809441E0;-9.534309387E0;-3.264493942E0
2.729026656E1;1.034833813E1;-9.898228645E0;-3.114257812E0
2.730693255E1;1.107378101E1;-9.598354340E0;-3.119644880E0
2.732359854E1;1.165437508E1;-9.117718697E0;-3.163937569E0
2.734026453E1;1.171662426E1;-8.629899979E0;-3.227383852E0
2.735693052E1;1.118152046E1;-8.386888504E0;-3.163338900E0
2.737359651E1;1.048121643E1;-8.341399193E0;-2.984971046E0
2.739026250E1;9.824007988E0;-8.503006935E0;-2.445677042E0
2.740692849E1;9.336189270E0;-8.752602577E0;-1.643020868E0
2.742359448E1;8.848370552E0;-9.088389397E0;-6.985083222E-1
2.744026047E1;8.619126320E0;-9.360730171E0;-6.506243348E-1
2.745692646E1;8.218097687E0;-9.379284859E0;4.369417951E-2
2.747359245E1;7.793725014E0;-9.197325706E0;4.800374508E-1
2.749025844E1;7.423222542E0;-8.787917137E0;7.398083210E-1
2.750692443E1;7.291541100E0;-8.334815025E0;8.672995567E-1
2.752359042E1;7.232883453E0;-7.973888874E0;8.086416125E-1
2.754025641E1;7.219116688E0;-7.759009361E0;6.847416759E-1
2.755692240E1;7.205349922E0;-7.648277283E0;5.374982953E-1
2.757358839E1;7.127538681E0;-7.529165745E0;3.627215624E-1
2.759025438E1;6.704961777E0;-7.487865925E0;9.397241473E-2
2.760692036E1;6.320094109E0;-7.456741333E0;-1.657984704E-1
2.762358636E1;5.947196960E0;-7.416039944E0;-2.585737705E-1
2.764025234E1;5.559336185E0;-7.308300495E0;-4.249707982E-2
2.765691833E1;5.282207489E0;-6.956353188E0;-5.985504389E-2
2.767358432E1;5.042787552E0;-6.678625584E0;2.094926499E-2
2.769025031E1;4.842871666E0;-6.538564682E0;2.573766708E-1
2.770691630E1;4.501697540E0;-6.281786919E0;4.596867263E-1
2.772358229E1;4.105457306E0;-6.136937618E0;1.675941199E-1
2.774024828E1;3.619434357E0;-5.917868137E0;5.386953801E-2
2.775691427E1;3.301604033E0;-5.729324818E0;-1.657984704E-1
2.777358026E1;3.233369350E0;-5.629965305E0;-5.596446395E-1
2.779024625E1;3.202244759E0;-5.671864033E0;-1.093551636E0
2.780691224E1;3.221997023E0;-5.974730492E0;-1.491587639E0
2.782357823E1;2.961029053E0;-6.361393929E0;-1.441309452E0
2.784024422E1;2.643797159E0;-6.777985096E0;-9.648633003E-1
2.785691021E1;2.745550871E0;-7.220313549E0;-8.864531517E-1
2.787357620E1;3.268085241E0;-7.892486095E0;-1.034893632E0
2.789024219E1;4.322132587E0;-9.012971878E0;-1.816600561E0
2.790690818E1;5.045181751E0;-9.926360130E0;-3.023278236E0
2.792357417E1;5.651513100E0;-1.043752193E1;-3.954024076E0
2.794024016E1;6.281188011E0;-1.093431950E1;-4.293402195E0
2.795690615E1;6.874351501E0;-1.110370922E1;-3.597288132E0
2.797357214E1;7.462726593E0;-1.118570995E1;-2.670732021E0
2.799023813E1;8.033144951E0;-1.124855804E1;-1.955464244E0
2.800690412E1;8.696937561E0;-1.115937424E1;-1.476025343E0
2.802357010E1;9.203310966E0;-1.082239056E1;-1.486799240E0
2.804023610E1;9.646238327E0;-1.033696556E1;-1.319205165E0
2.805690208E1;1.002093124E1;-9.703101158E0;-1.111508131E0
2.807356807E1;1.015261269E1;-8.950124741E0;-1.013944387E0
2.809023406E1;1.003170490E1;-8.195950508E0;-1.234809518E0
2.810690005E1;9.701305389E0;-7.618948460E0;-1.825578809E0
2.812356604E1;9.114127159E0;-7.119158745E0;-2.534262419E0
2.814023203E1;8.325238228E0;-6.639719963E0;-3.095702887E0
2.815689802E1;7.465120792E0;-6.196194172E0;-3.112462282E0
2.817356401E1;6.857592106E0;-5.931035995E0;-2.609081268E0
2.819023000E1;6.302735806E0;-5.841253757E0;-1.881842494E0
2.820689599E1;5.886743546E0;-5.752667904E0;-1.242590666E0
2.822356198E1;5.458181381E0;-5.578489780E0;-7.505822182E-1
2.824022797E1;5.298966885E0;-5.501276970E0;-3.447650373E-1
2.825689396E1;5.136161327E0;-5.611410141E0;-1.891419291E-1
2.827355995E1;5.131372929E0;-5.958569527E0;-7.003039867E-2
2.829022594E1;5.454589844E0;-6.415862083E0;1.101332754E-1
2.830689193E1;5.933430195E0;-6.867168903E0;3.830722719E-2
2.832355792E1;6.649895191E0;-7.139509678E0;-2.507926226E-1
2.834022391E1;7.252635479E0;-7.204153061E0;-8.445546627E-1
2.835688990E1;7.766790390E0;-7.198765755E0;-1.002571940E0
2.837355589E1;8.106766701E0;-7.093420982E0;-9.163807034E-1
2.839022188E1;8.254609108E0;-6.975506783E0;-8.918401599E-1
2.840688786E1;8.389283180E0;-6.836044312E0;-1.022324085E0
2.842355386E1;8.334216118E0;-6.803123951E0;-1.653196216E0
2.844021984E1;8.187571526E0;-6.873753071E0;-2.197278500E0
2.845688583E1;7.936778545E0;-7.098807812E0;-2.567182779E0
2.847355182E1;7.945756912E0;-7.546523571E0;-2.944868088E0
2.849021781E1;8.273762703E0;-7.960720539E0;-3.266888142E0
2.850688380E1;8.719083786E0;-8.027758598E0;-3.627814054E0
2.852354979E1;8.990825653E0;-7.815871239E0;-4.149151325E0
2.854021578E1;9.370306969E0;-7.741651058E0;-4.464587688E0
2.855688177E1;9.906607628E0;-8.449736595E0;-4.658517838E0
2.857354776E1;9.637260437E0;-9.159018517E0;-4.103063107E0
2.859021375E1;9.468469620E0;-9.922170639E0;-3.260902643E0
2.860687974E1;9.787496567E0;-1.054885292E1;-2.419939280E0
2.862354573E1;1.023162079E1;-1.049618053E1;-1.885433793E0
2.864021172E1;1.065599346E1;-1.013166332E1;-1.700481772E0
2.865687771E1;1.069430065E1;-9.499593735E0;-1.720832467E0
2.867354370E1;1.039442635E1;-9.035717010E0;-1.845330954E0
2.869020969E1;9.944915771E0;-8.731653214E0;-1.972223639E0
2.870687568E1;9.479841232E0;-8.549694061E0;-2.134430885E0
2.872354167E1;9.050681114E0;-8.476671219E0;-2.151788712E0
2.874020766E1;8.635287285E0;-8.622717857E0;-1.938106298E0
2.875687365E1;8.090007782E0;-8.757989883E0;-1.176151633E0
2.877353964E1;7.818265438E0;-9.244611740E0;-8.355764151E-1
2.879020563E1;7.342418194E0;-9.321824074E0;7.003039867E-2
2.880687162E1;6.910863400E0;-9.159018517E0;7.858967185E-1
2.882353761E1;6.683413982E0;-8.749609947E0;1.238999367E0
2.884020360E1;6.630741596E0;-8.292317390E0;1.446097851E0
2.885686958E1;6.616376400E0;-7.861361504E0;1.247977614E0
2.887353557E1;6.614580631E0;-7.608773232E0;8.948329091E-1
2.889020156E1;6.537367821E0;-7.519588947E0;5.716156363E-1
2.890686755E1;6.472724438E0;-7.530363083E0;4.315548539E-1
2.892353354E1;6.364386559E0;-7.575253963E0;3.531447649E-1
2.894019953E1;6.158485413E0;-7.595604897E0;4.118026793E-1
2.895686552E1;5.989095688E0;-7.693168640E0;7.805097699E-1
2.897353151E1;5.914875507E0;-7.579443932E0;8.846575022E-1
2.899019750E1;5.746682644E0;-7.350797653E0;6.602011323E-1
2.900686349E1;5.459977150E0;-7.111976147E0;3.303998411E-1
2.902352948E1;5.208585739E0;-6.807912350E0;4.177882075E-1
2.904019547E1;5.140949726E0;-6.651690960E0;8.110358119E-1
2.905686146E1;5.051765442E0;-6.737283707E0;9.606734514E-1
2.907352745E1;4.396951199E0;-6.890512466E0;6.290764809E-1
2.909019344E1;3.863642931E0;-7.026981831E0;-2.274491638E-2
2.910685943E1;3.206434727E0;-7.012018204E0;-5.380968451E-1
2.912352542E1;2.829946518E0;-6.903680801E0;-1.130661726E0
2.914019141E1;2.748543501E0;-6.783371925E0;-1.478419542E0
2.915685740E1;2.755726099E0;-6.722918510E0;-1.503558636E0
2.917352339E1;2.685097218E0;-6.767210960E0;-1.244386315E0
2.919018938E1;2.785055161E0;-6.928221226E0;-1.122880578E0
2.920685537E1;3.217208624E0;-7.197568893E0;-1.391031146E0
2.922352136E1;3.813963413E0;-7.545326710E0;-2.233790159E0
2.924018735E1;4.717175961E0;-8.386888504E0;-3.534440279E0
2.925685333E1;5.505466938E0;-9.255983353E0;-4.583100796E0
2.927351932E1;5.927444935E0;-1.010772133E1;-4.742913723E0
2.929018531E1;6.151302814E0;-1.099357605E1;-3.800795317E0
2.930685130E1;6.184821606E0;-1.153765774E1;-2.119467020E0
2.932351729E1;6.556521416E0;-1.176570606E1;-3.561375141E-1
2.934018328E1;7.305906296E0;-1.167771912E1;7.428010702E-1
2.935684927E1;8.213907242E0;-1.133235550E1;6.374561787E-1
2.937351526E1;8.944138527E0;-1.094030476E1;-5.596446395E-1
2.939018125E1;9.597756386E0;-1.057040024E1;-1.501164436E0
2.940684724E1;9.916783333E0;-9.969455719E0;-2.069188833E0
2.942351323E1;1.006761837E1;-9.319430351E0;-2.635417461E0
2.944017922E1;1.000058079E1;-8.623914719E0;-3.456030130E0
2.945684521E1;9.597157478E0;-7.889492989E0;-4.195240021E0
2.947351120E1;8.889671326E0;-7.144896507E0;-4.397550106E0
2.949017719E1;8.408436775E0;-6.524199486E0;-3.942651749E0
2.950684318E1;8.188169479E0;-6.056731701E0;-3.177105665E0
2.952350917E1;7.762600422E0;-5.641936302E0;-2.673126221E0
2.954017516E1;7.221510887E0;-5.452794552E0;-2.483984232E0
2.955684115E1;6.760028362E0;-5.533598900E0;-2.224812031E0
2.957350714E1;6.336853504E0;-5.745485306E0;-1.772906303E0
2.959017313E1;6.154893875E0;-5.983109951E0;-1.197100878E0
2.960683912E1;6.213551998E0;-6.066308498E0;-6.458359361E-1
2.962350511E1;6.430227280E0;-6.116586685E0;-2.920926213E-1
2.964017110E1;6.718728542E0;-6.232107162E0;-1.137245819E-1
2.965683708E1;7.020398140E0;-6.387131691E0;1.077390742E-2
2.967350307E1;7.357980251E0;-6.608595371E0;-8.439560980E-2
2.969016906E1;7.338826656E0;-6.382343292E0;-5.919663906E-1
2.970683505E1;7.510610580E0;-6.057929039E0;-1.133654475E0
2.972350104E1;7.606379032E0;-5.573701382E0;-1.429338455E0
2.974016703E1;7.650671482E0;-5.308543682E0;-1.702277422E0
2.975683302E1;7.450755596E0;-5.162497520E0;-2.044648170E0
2.977349901E1;7.269993305E0;-5.374384403E0;-2.452859640E0
2.979016500E1;7.041945934E0;-5.755661011E0;-2.909553528E0
2.980683099E1;7.011419773E0;-6.331466198E0;-3.329137564E0
2.982349698E1;7.221510887E0;-7.024587631E0;-3.552995205E0
2.984016297E1;7.597400665E0;-7.609970093E0;-3.536834478E0
2.985682896E1;8.194155693E0;-8.060678482E0;-3.254917145E0
2.987349495E1;8.699930191E0;-8.098387718E0;-2.587533474E0
2.989016094E1;8.996212959E0;-7.984662533E0;-2.026691675E0
2.990682693E1;9.044096947E0;-7.952341080E0;-1.589151382E0
2.992349292E1;9.190741539E0;-8.410231590E0;-1.477222443E0
2.994015891E1;8.901042938E0;-9.386467934E0;-1.486200690E0
2.995682490E1;8.323442459E0;-9.995193481E0;-1.292868972E0
2.997349089E1;8.418013573E0;-1.070387745E1;-1.521515131E0
2.999015688E1;9.065644264E0;-1.093611526E1;-1.853710651E0
3.000682286E1;9.713275909E0;-1.050934792E1;-2.294243813E0
3.002348886E1;1.015500641E1;-9.859921455E0;-2.917334795E0
3.004015484E1;1.006642151E1;-9.074024200E0;-3.189675331E0
3.005682083E1;9.619303703E0;-8.497021675E0;-3.499724388E0
3.007348682E1;8.993818283E0;-8.180388451E0;-3.323750496E0
3.009015281E1;8.188169479E0;-8.169614792E0;-2.460640907E0
3.010681880E1;7.891288757E0;-8.330624580E0;-2.331952572E0
3.012348479E1;7.384915352E0;-8.510190010E0;-1.017535686E0
3.014015078E1;6.999448776E0;-8.786121368E0;-4.243722558E-1
3.015681677E1;6.715735912E0;-8.889072418E0;8.978256583E-2
3.017348276E1;6.521805286E0;-8.760383606E0;3.262099922E-1
3.019014875E1;6.397905350E0;-8.388684273E0;5.153518915E-1
3.020681474E1;6.397905350E0;-7.991845131E0;4.662707746E-1
3.022348073E1;6.528987885E0;-7.676409245E0;3.824737072E-1
3.024014672E1;6.687005520E0;-7.390900612E0;2.442085743E-1
3.025681271E1;6.853402138E0;-7.275979042E0;2.633621916E-2
3.027347870E1;6.877344608E0;-7.238868713E0;-2.334346622E-1
3.029014469E1;6.472724438E0;-7.276577473E0;-6.063315868E-1
3.030681068E1;6.120776653E0;-7.263409615E0;-9.008184075E-1
3.032347667E1;5.624578476E0;-7.029376030E0;-9.109937549E-1
3.034014266E1;5.192424774E0;-6.669048786E0;-4.513070285E-1
3.035680865E1;4.905120850E0;-6.351218700E0;2.992752008E-3
3.037347464E1;4.389170170E0;-6.055534840E0;6.602011323E-1
3.039014063E1;4.081515312E0;-6.021417141E0;7.978677154E-1
3.040680662E1;3.705625772E0;-5.956175327E0;2.047042400E-1
3.042347260E1;3.221997023E0;-5.879560947E0;-8.343793154E-1
3.044013860E1;2.959831953E0;-5.842450619E0;-1.562815189E0
3.045680458E1;3.003525972E0;-5.835268021E0;-1.903390408E0
3.047347057E1;3.319560766E0;-5.992088318E0;-1.948880196E0
3.049013656E1;3.722983599E0;-6.372167587E0;-2.037465572E0
3.050680255E1;3.921702385E0;-6.735487938E0;-2.430114746E0
3.052346854E1;4.001908302E0;-7.018602371E0;-2.777273893E0
3.054013453E1;4.182670593E0;-7.221510887E0;-2.842515945E0
3.055680052E1;4.456207752E0;-7.534552574E0;-2.644395828E0
3.057346651E1;4.655525208E0;-7.896675587E0;-2.148197412E0
3.059013250E1;5.139752388E0;-8.233060837E0;-2.027888775E0
3.060679849E1;5.905298710E0;-8.615534782E0;-2.498349428E0
3.062346448E1;6.780977726E0;-9.228450775E0;-3.339911461E0
3.064013047E1;7.332841396E0;-9.791686058E0;-3.507505417E0
3.065679646E1;8.233659744E0;-1.056381607E1;-2.742558002E0
3.067346245E1;9.026739120E0;-1.165557289E1;-2.030881643E0
3.069012844E1;8.468291283E0;-1.142991924E1;-1.436521053E0
3.070679443E1;8.279149055E0;-1.086548615E1;-1.116296530E0
3.072346042E1;8.401253700E0;-1.002033234E1;-4.219780564E-1
3.074012641E1;9.001600266E0;-9.375095367E0;-3.800795078E-1
3.075679240E1;9.071630478E0;-8.526350975E0;-9.971849918E-1
3.077345839E1;9.015366554E0;-7.986458302E0;-1.632246971E0
3.079012438E1;8.767566681E0;-7.542932510E0;-1.830965757E0
3.080679036E1;8.403049469E0;-7.141304970E0;-2.121861219E0
3.082345636E1;8.167220116E0;-6.864176273E0;-2.519298792E0
3.084012234E1;8.018181801E0;-6.758831501E0;-2.713827610E0
3.085678833E1;7.611167431E0;-6.833650112E0;-2.487575531E0
3.087345432E1;6.985083580E0;-6.886921406E0;-2.101510525E0
3.089012031E1;6.644508362E0;-6.853402138E0;-1.726219416E0
3.090678630E1;6.489483833E0;-6.725312710E0;-1.065419793E0
3.092345229E1;6.408679485E0;-6.558317184E0;-2.597708702E-1
3.094011828E1;6.120178223E0;-6.299144745E0;-6.584054977E-2
3.095678427E1;5.762843609E0;-6.044760704E0;-5.644330382E-1
3.097345026E1;5.616198540E0;-5.812523365E0;-1.092953086E0
3.099011625E1;6.051943302E0;-5.778405666E0;-1.429937005E0
3.100678224E1;6.361992359E0;-5.798158169E0;-1.584362984E0
3.102344823E1;6.523002625E0;-5.960365295E0;-1.829170108E0
3.104011422E1;6.660669327E0;-6.184821606E0;-1.974019289E0
3.105678021E1;6.749254704E0;-6.299144745E0;-1.982398987E0
3.107344620E1;6.962936878E0;-6.436212540E0;-1.833359957E0
3.109011219E1;7.244256020E0;-6.482899666E0;-1.368884802E0
3.110677818E1;7.413046837E0;-6.479907036E0;-1.216254473E0
3.112344417E1;7.463923931E0;-6.350619793E0;-1.179742932E0
3.114011016E1;7.545925140E0;-6.164470673E0;-1.219247222E0
3.115677615E1;7.505223751E0;-5.983708382E0;-1.323993564E0
3.117344214E1;7.480084896E0;-6.146514416E0;-1.635838270E0
3.119010813E1;7.603984833E0;-6.676231384E0;-1.940500498E0
3.120677412E1;7.579443932E0;-7.226299286E0;-2.222417831E0
3.122344010E1;7.754819393E0;-7.718906403E0;-2.415749550E0
3.124010610E1;8.068459511E0;-7.876325130E0;-2.517503023E0
3.125677208E1;8.588600159E0;-7.800309181E0;-2.778470993E0
3.127343807E1;8.977658272E0;-7.460332394E0;-2.868253708E0
3.129010406E1;9.070432663E0;-7.144298077E0;-2.892195702E0
3.130677005E1;8.768165588E0;-7.100005150E0;-2.901772499E0
3.132343604E1;8.571242332E0;-7.746439457E0;-2.690484047E0
3.134010203E1;8.426392555E0;-8.753800392E0;-2.146401882E0
3.135676802E1;8.346187592E0;-9.632472038E0;-1.734599113E0
3.137343401E1;8.999804497E0;-1.070746899E1;-1.739387512E0
3.139010000E1;9.563039780E0;-1.097322464E1;-1.760336757E0
3.140676599E1;1.027890682E1;-1.038425159E1;-2.297236443E0
3.142343198E1;1.076014137E1;-9.128492355E0;-2.896984100E0
3.144009797E1;1.073500156E1;-7.952939510E0;-3.724180698E0
3.145676396E1;1.003709221E1;-7.336432457E0;-4.405929565E0
3.147342995E1;9.193136215E0;-7.413645744E0;-4.526836872E0
3.149009594E1;8.545504570E0;-7.890690327E0;-3.658938646E0
3.150676193E1;8.131906509E0;-8.642469406E0;-2.351704597E0
3.152342792E1;7.721300602E0;-9.172784805E0;-7.924807668E-1
3.154009391E1;7.662642479E0;-9.502586365E0;-4.548983276E-1
3.155675990E1;7.404667377E0;-9.211092949E0;1.035492271E-1
3.157342589E1;7.220313549E0;-8.856152534E0;1.634042710E-1
3.159009188E1;7.033565998E0;-8.383895874E0;1.185129806E-1
3.160675787E1;6.971316814E0;-8.023568153E0;-5.686229095E-2
3.162342386E1;6.943184853E0;-7.769184589E0;-2.334346622E-1
3.164008985E1;6.893505096E0;-7.685986042E0;-5.446808934E-1
3.165675583E1;6.764816761E0;-7.673416615E0;-6.937199235E-1
3.167342182E1;6.581660271E0;-7.688380241E0;-5.823895931E-1
3.169008781E1;6.453570843E0;-7.867945194E0;-2.729389966E-1
3.170675380E1;6.443395138E0;-8.267777443E0;-3.262099922E-1
3.172341979E1;6.075286865E0;-8.265382767E0;-6.045359373E-1
3.174008578E1;5.576095581E0;-8.055890083E0;-5.859808922E-1
3.175675177E1;5.154117584E0;-7.295731068E0;-1.891419291E-1
3.177341776E1;5.249885559E0;-6.880935669E0;-8.978256024E-3
3.179008375E1;5.244498730E0;-6.591835976E0;-5.985504249E-4
3.180674974E1;4.929062843E0;-6.543353081E0;-4.800374508E-1
3.182341573E1;4.483741283E0;-6.614580631E0;-1.194108129E0
3.184008172E1;4.042010784E0;-6.549338818E0;-1.681328177E0
3.185674771E1;3.543418407E0;-6.452971935E0;-1.930923700E0
3.187341370E1;3.234566450E0;-6.391321659E0;-1.893214941E0
3.189007969E1;3.230376720E0;-6.488286495E0;-1.481412292E0
3.190674568E1;3.206434727E0;-6.637924194E0;-1.213261724E0
3.192341167E1;3.116652012E0;-6.822277546E0;-1.230619669E0
3.194007766E1;2.802412987E0;-6.982689381E0;-1.326387763E0
3.195674365E1;2.470217705E0;-7.046135426E0;-1.140837073E0
3.197340964E1;2.613869667E0;-7.153275967E0;-7.715315223E-1
3.199007563E1;3.532644510E0;-7.633313656E0;-8.810662031E-1
3.200674162E1;4.690241337E0;-8.485051155E0;-2.078765631E0
3.202340760E1;5.356427670E0;-9.296685219E0;-3.448249102E0
3.204007360E1;5.813720226E0;-1.006821632E1;-4.186261654E0
3.205673958E1;6.254253387E0;-1.090080070E1;-3.994725466E0
3.207340557E1;6.361992359E0;-1.128087997E1;-2.670133352E0
3.209007156E1;6.721721172E0;-1.145685387E1;-1.024119735E0
3.210673755E1;7.444770336E0;-1.115159321E1;1.855506301E-1
3.212340354E1;8.185176849E0;-1.067754078E1;4.129997790E-1
3.214006953E1;8.886079788E0;-1.027351952E1;-4.734533727E-1
3.215673552E1;9.546878815E0;-1.006582260E1;-1.713051319E0
3.217340151E1;9.838373184E0;-9.601346970E0;-2.733579874E0
3.219006750E1;1.001674175E1;-8.967482567E0;-3.520673513E0
3.220673349E1;1.007599831E1;-8.252214432E0;-4.346074581E0
3.222339948E1;9.973646164E0;-7.678205013E0;-5.120000362E0
3.224006547E1;9.512163162E0;-7.127538681E0;-5.316324711E0
3.225673146E1;8.991424561E0;-6.645705223E0;-5.019443989E0
3.227339745E1;8.370727539E0;-6.314706802E0;-4.305971622E0
3.229006344E1;7.700351238E0;-6.244078159E0;-3.509301186E0
3.230672943E1;7.074267387E0;-6.104615688E0;-2.434304476E0
3.232339542E1;6.756437302E0;-6.215347767E0;-1.693897724E0
3.234006141E1;6.339846134E0;-6.192004204E0;-1.030105233E0
3.235672740E1;6.175244808E0;-6.295553207E0;-6.757634282E-1
3.237339339E1;6.167463779E0;-6.450577736E0;-4.614823759E-1
3.239005938E1;6.329670906E0;-6.601412773E0;-3.327940404E-1
3.240672536E1;6.524199486E0;-6.709750175E0;-5.919663906E-1
3.242339136E1;6.658873558E0;-6.704961777E0;-7.529764175E-1
3.244005734E1;6.845022678E0;-6.728903770E0;-8.295909166E-1
3.245672333E1;7.051522732E0;-6.518812656E0;-9.995791912E-1
3.247338932E1;7.213130951E0;-6.385335922E0;-1.377863050E0
3.249005531E1;7.125742912E0;-6.114790916E0;-1.441908002E0
3.250672130E1;7.155670166E0;-5.908889771E0;-1.459864497E0
3.252338729E1;7.404667377E0;-5.942408562E0;-1.699883223E0
3.254005328E1;7.357381821E0;-6.094440460E0;-1.852513552E0
3.255671927E1;7.326855659E0;-6.394314289E0;-2.029684544E0
3.257338526E1;7.482479095E0;-6.878541470E0;-2.365471363E0
3.259005125E1;7.748833656E0;-7.290942669E0;-2.843713045E0
3.260671724E1;8.168417931E0;-7.682993412E0;-3.324349165E0
3.262338323E1;8.550292969E0;-7.733870029E0;-3.648164749E0
3.264004922E1;8.933963776E0;-7.466916561E0;-3.581725836E0
3.265671521E1;9.187150002E0;-7.133523941E0;-3.280056238E0
3.267338120E1;9.103952408E0;-7.052719593E0;-3.269282341E0
3.269004719E1;9.179368973E0;-7.732074261E0;-3.407547474E0
3.270671318E1;8.876502991E0;-8.653243065E0;-2.830544949E0
3.272337917E1;8.933364868E0;-9.442731857E0;-2.330755472E0
3.274004516E1;9.506776810E0;-1.024897861E1;-2.181716204E0
3.275671115E1;1.011071396E1;-9.992799759E0;-2.258929253E0
3.277337714E1;1.086249352E1;-9.341576576E0;-2.742558002E0
3.279004313E1;1.106839466E1;-8.454524994E0;-3.065176725E0
3.280670912E1;1.067035866E1;-7.764396191E0;-3.509899616E0
3.282337510E1;9.952097893E0;-7.691971302E0;-3.730166197E0
3.284004110E1;9.025542259E0;-8.113949776E0;-3.384802580E0
3.285670708E1;8.416815758E0;-8.777742386E0;-2.633621931E0
3.287337307E1;8.136096001E0;-9.556455612E0;-1.692102075E0
3.289003906E1;7.714716434E0;-1.002691650E1;-8.565256596E-1
3.290670505E1;7.486668587E0;-9.998785019E0;-2.627636492E-1
3.292337104E1;7.256825447E0;-9.590573311E0;-9.816227108E-2
3.294003703E1;7.123947144E0;-8.946533203E0;-1.185129806E-1
3.295670302E1;7.028777599E0;-8.392275810E0;-2.340332121E-1
3.297336901E1;6.957550049E0;-7.921814919E0;-1.741781682E-1
3.299003500E1;6.953958988E0;-7.584830761E0;-2.070984542E-1
3.300670099E1;6.953360081E0;-7.466318130E0;-2.825157940E-1
3.302336698E1;6.873753071E0;-7.526173115E0;-3.112462163E-1
3.304003297E1;6.679224014E0;-7.650671482E0;-2.861070931E-1
3.305669896E1;6.579864979E0;-7.736862659E0;-1.346738487E-1
3.307336495E1;6.597821236E0;-7.782951355E0;-1.316810958E-2
3.309003094E1;6.607996464E0;-7.839813232E0;-2.220622003E-1
3.310669693E1;6.315305710E0;-7.973888874E0;2.454056777E-2
3.312336292E1;6.081272125E0;-7.693767071E0;5.752069354E-1
3.314002891E1;5.993884087E0;-7.420229435E0;8.349778652E-1
3.315669490E1;5.724536419E0;-7.122750282E0;1.030703783E0
3.317336089E1;5.512050629E0;-6.968324184E0;9.732429981E-1
3.319002688E1;5.324106216E0;-6.892906666E0;9.074024558E-1
3.320669286E1;4.910507679E0;-6.893505096E0;6.386532784E-1
3.322335886E1;4.223970413E0;-6.938396454E0;9.576806799E-3
3.324002484E1;3.544017076E0;-6.842628479E0;-6.254851818E-1
3.325669083E1;2.955641985E0;-6.786364555E0;-1.158793569E0
3.327335682E1;2.403778553E0;-6.749254704E0;-1.374271750E0
3.329002281E1;2.299630642E0;-6.688800812E0;-9.439139962E-1
3.330668880E1;2.263119221E0;-6.568492413E0;-2.112883031E-1
3.332335479E1;2.327762604E0;-6.839635849E0;8.978256024E-3
3.334002078E1;2.479794502E0;-7.392696381E0;-4.698620737E-1
3.335668677E1;3.083133221E0;-7.959523678E0;-1.616684675E0
3.337335276E1;4.053982258E0;-8.871115685E0;-3.301604033E0
3.339001875E1;4.770446777E0;-9.613917351E0;-4.920682907E0
3.340668474E1;5.065532207E0;-1.016398430E1;-5.654505730E0
3.342335073E1;5.534795761E0;-1.114141750E1;-5.126584530E0
3.344001672E1;5.814318657E0;-1.184710884E1;-3.497330189E0
3.345668271E1;6.343437195E0;-1.242231560E1;-1.850119352E0
3.347334870E1;7.189787865E0;-1.247738171E1;-4.046200812E-1
3.349001469E1;8.115146637E0;-1.221761131E1;1.646013707E-1
3.350668068E1;9.012971878E0;-1.179563332E1;-4.608838260E-2
3.352334667E1;9.786299706E0;-1.123299599E1;-4.926069975E-1
3.354001266E1;1.038844109E1;-1.047582912E1;-9.475052953E-1
3.355667865E1;1.064641666E1;-9.656414032E0;-1.617881775E0
3.357334464E1;1.050336266E1;-8.804078102E0;-2.675520420E0
3.359001063E1;1.025975323E1;-8.063671112E0;-3.611054659E0
3.360667662E1;9.774927139E0;-7.381922245E0;-4.068347454E0
3.362334261E1;9.179967880E0;-6.843226910E0;-3.940257549E0
3.364000860E1;8.628104210E0;-6.549338818E0;-3.393182278E0
3.365667458E1;7.946953773E0;-6.443994045E0;-2.580350876E0
3.367334057E1;7.323264599E0;-6.448782444E0;-1.818994761E0
3.369000656E1;6.804321289E0;-6.384737492E0;-1.107916832E0
3.370667255E1;6.389525890E0;-6.342838764E0;-5.961562395E-1
3.372333854E1;6.086659431E0;-6.249464989E0;-2.849099934E-1
3.374000453E1;5.820902824E0;-6.204573631E0;1.436521020E-2
3.375667052E1;5.959766388E0;-6.352415562E0;1.681926697E-1
3.377333651E1;6.199785233E0;-6.588842869E0;2.543839216E-1
3.379000250E1;6.361992359E0;-6.621763229E0;6.165069342E-2
3.380666849E1;6.563105583E0;-6.541557789E0;-4.572925270E-1
3.382333448E1;6.792350292E0;-6.414066315E0;-1.017535686E0
3.384000047E1;6.951564789E0;-6.230909824E0;-1.229422569E0
3.385666646E1;7.051522732E0;-6.077082634E0;-1.340154409E0
3.387333245E1;7.302315235E0;-6.107608318E0;-1.331176162E0
3.388999844E1;7.337030888E0;-6.174047470E0;-1.391629696E0
3.390666443E1;7.249642849E0;-6.394314289E0;-1.546055794E0
3.392333042E1;7.196371555E0;-6.742670536E0;-1.604115129E0
3.393999641E1;7.366360188E0;-7.240664482E0;-1.702875972E0
3.395666240E1;7.583633900E0;-7.651868820E0;-1.980603337E0
3.397332839E1;7.978078842E0;-7.781155586E0;-2.586336374E0
3.398999438E1;8.386888504E0;-7.670423508E0;-3.293823004E0
3.400666036E1;8.656236649E0;-7.345410824E0;-3.699041605E0
3.402332636E1;8.872312546E0;-7.068282127E0;-3.910329819E0
3.403999234E1;8.692748070E0;-6.801927090E0;-3.928286552E0
3.405665833E1;8.597578049E0;-6.999448776E0;-3.824737310E0
3.407332432E1;8.716690063E0;-8.069058418E0;-3.657741547E0
3.408999031E1;8.348581314E0;-9.180566788E0;-3.027467966E0
3.410665630E1;8.632294655E0;-1.079306126E1;-2.602497339E0
3.412332229E1;9.215282440E0;-1.189200020E1;-1.792658567E0
3.413998828E1;9.989806175E0;-1.158015537E1;-1.207874775E0
3.415665427E1;1.091576385E1;-1.019391251E1;-1.201889277E0
3.417332026E1;1.114381218E1;-8.618527412E0;-2.051830769E0
3.418998625E1;1.073739624E1;-7.607575893E0;-2.776675463E0
3.420665224E1;9.892242432E0;-7.481880188E0;-3.357867956E0
3.422331823E1;8.914810181E0;-8.073846817E0;-3.158550501E0
3.423998422E1;8.097788811E0;-8.895656586E0;-2.349310398E0
3.425665021E1;7.557896137E0;-9.816226959E0;-1.463455796E0
3.427331620E1;7.427412033E0;-1.039861679E1;-3.513490856E-1
3.428998219E1;7.417236805E0;-1.033876133E1;6.901286244E-1
3.430664818E1;7.496844292E0;-9.959878922E0;1.609502077E0
3.432331417E1;7.405864239E0;-9.285911560E0;2.215833664E0
3.433998016E1;7.175422668E0;-8.528146744E0;1.708861470E0
3.435664615E1;6.972513676E0;-7.917026520E0;9.062053561E-1
3.437331214E1;6.727706909E0;-7.630919456E0;2.597708702E-1
3.438997813E1;6.416460514E0;-7.476493359E0;2.992752194E-2
3.440664412E1;6.351817131E0;-7.328052998E0;1.197100803E-2
3.442331010E1;6.327875137E0;-7.140108109E0;1.083376259E-1
3.443997610E1;6.199186802E0;-7.418434143E0;-3.471592367E-1
3.445664208E1;5.824494362E0;-7.861361504E0;-7.176619768E-1
3.447330807E1;5.925050735E0;-7.945158482E0;-1.254561663E0
3.448997406E1;6.453570843E0;-8.686761856E0;-1.743577361E0
3.450664005E1;6.903680801E0;-9.692925453E0;-1.731606364E0
3.452330604E1;7.414842606E0;-9.902418137E0;-2.936488390E0
3.453997203E1;7.580641270E0;-8.367136002E0;-4.309563160E0
3.455663802E1;6.872556210E0;-6.338648796E0;-4.236539841E0
3.457330401E1;8.289923668E0;-7.435791969E0;-9.223662019E-1
3.458997000E1;8.090007782E0;-8.877699852E0;2.360682964E0
