"Time (s)";"Gyroscope x (rad/s)";"Gyroscope y (rad/s)";"Gyroscope z (rad/s)"
6.727403000E-2;-1.415469050E-1;6.886929274E-1;1.958753467E-1
8.394002000E-2;-1.498026997E-1;8.881635666E-1;2.063948363E-1
1.006060100E-1;-2.669816911E-1;1.023984671E0;1.689774394E-1
1.172719990E-1;-4.833633900E-1;1.297624230E0;5.912213027E-2
1.339379890E-1;-6.868287325E-1;1.496029615E0;-6.724476814E-2
1.506039780E-1;-8.534093499E-1;1.450622797E0;-8.402267098E-2
1.672699680E-1;-8.584693074E-1;1.328516960E0;-8.974846452E-2
1.839359580E-1;-6.314350367E-1;1.099218965E0;-1.182442605E-1
2.006019470E-1;-3.589938581E-1;8.801741004E-1;-1.608548164E-1
2.172679370E-1;-1.896169335E-1;7.880287766E-1;-1.990711391E-1
2.339339260E-1;-1.564605981E-1;7.988145947E-1;-1.829590350E-1
2.505999160E-1;-1.699095517E-1;9.752488732E-1;-1.703090221E-1
2.672659050E-1;-2.355564237E-1;1.189100504E0;-1.633848101E-1
2.839318950E-1;-3.848264813E-1;1.247956395E0;-2.021337748E-1
3.005978850E-1;-4.604602158E-1;1.122654676E0;-2.972085476E-1
3.172638740E-1;-4.190480709E-1;8.775109053E-1;-4.082622826E-1
3.339298640E-1;-3.251717389E-1;6.363618970E-1;-4.699144363E-1
3.505958530E-1;-2.253032625E-1;4.906870723E-1;-4.816323221E-1
3.672618430E-1;-1.338237375E-1;4.219775498E-1;-4.704470634E-1
3.839278330E-1;-8.335687965E-2;4.452801943E-1;-4.293012619E-1
4.005938220E-1;-7.070687413E-2;4.950812757E-1;-3.704454303E-1
4.172598120E-1;-3.448791057E-2;4.584628344E-1;-3.324954212E-1
4.339258010E-1;5.219791830E-2;3.767038584E-1;-2.745717168E-1
4.505917910E-1;9.267793596E-2;2.346243113E-1;-2.086585164E-1
4.672577800E-1;1.174453199E-1;8.482161909E-2;-1.800295562E-1
4.839237700E-1;1.407479644E-1;-1.023984700E-1;-1.914811432E-1
5.005897600E-1;1.495363861E-1;-2.724411786E-1;-1.781653464E-1
5.172557490E-1;1.053279415E-1;-3.347590864E-1;-7.390266657E-2
5.339217390E-1;3.195791040E-3;-3.725759685E-1;6.151897460E-2
5.505877280E-1;-6.285055727E-2;-4.362254739E-1;1.338237375E-1
5.672537180E-1;-9.321057051E-2;-5.095955133E-1;1.599227041E-1
5.839197080E-1;-1.355548054E-1;-5.769734383E-1;1.576590240E-1
6.005856970E-1;-2.961432934E-1;-3.434143662E-1;1.768337637E-1
6.172516870E-1;-4.458128214E-1;5.552686751E-2;2.755038142E-1
6.339176760E-1;-3.817638457E-1;2.376869470E-1;3.215764761E-1
6.505836660E-1;-2.821617126E-1;2.002695650E-1;3.242396116E-1
6.672496550E-1;-2.163816839E-1;8.934898674E-2;2.966759205E-1
6.839156450E-1;-1.403484792E-1;-7.696529478E-2;2.906838059E-1
7.005816350E-1;-1.344895363E-2;-2.311622053E-1;3.420827985E-1
7.172476240E-1;1.404816359E-1;-2.438122183E-1;4.715123177E-1
7.339136140E-1;2.767022252E-1;-2.588590682E-1;4.950812757E-1
7.505796030E-1;3.133206666E-1;-2.830938101E-1;4.616586268E-1
7.672455930E-1;2.017343044E-1;-3.021354079E-1;3.806985915E-1
7.839115830E-1;-1.083905771E-1;-3.020022511E-1;3.507380486E-1
8.005775720E-1;-4.841623306E-1;-2.109221965E-1;3.085269928E-1
8.172435620E-1;-7.285071611E-1;-4.514054582E-2;2.850911915E-1
8.339095510E-1;-7.177214026E-1;7.150582224E-2;3.137201369E-1
8.505755410E-1;-4.279696643E-1;1.332911104E-1;2.547311783E-1
8.672415300E-1;-1.890842989E-2;1.984053552E-1;1.492700726E-1
8.839075200E-1;2.459427416E-1;3.623228073E-1;1.351553202E-1
9.005735100E-1;2.900180221E-1;6.419544816E-1;1.605884880E-1
9.172394990E-1;1.745700836E-1;8.870983124E-1;2.298306376E-1
9.339054890E-1;5.845634267E-2;8.917587996E-1;3.544664681E-1
9.505714780E-1;1.518000662E-2;6.490118504E-1;4.904207587E-1
9.672374680E-1;-4.261054471E-2;4.025365114E-1;5.438171029E-1
9.839034580E-1;-1.576590240E-1;2.846917212E-1;4.510059953E-1
1.000569447E0;-2.692453861E-1;2.241048366E-1;2.643185556E-1
1.017235437E0;-2.545980215E-1;3.097254038E-1;7.736477256E-2
1.033901426E0;-9.054741263E-2;4.058654606E-1;-9.068056941E-2
1.050567416E0;9.680583328E-2;4.211786091E-1;-2.544648647E-1
1.067233405E0;2.450106442E-1;4.672512710E-1;-3.559312224E-1
1.083899395E0;3.572627902E-1;5.628587008E-1;-4.812328517E-1
1.100565385E0;2.145174593E-1;4.929507375E-1;-6.784397960E-1
1.117231374E0;-1.729721874E-1;3.791007102E-1;-8.028092980E-1
1.133897364E0;-3.355580568E-1;3.721764982E-1;-7.455514073E-1
1.150563353E0;-2.657832801E-1;1.130511016E-1;-6.487455368E-1
1.167229343E0;-1.997369342E-3;-9.933583438E-2;-5.752423406E-1
1.183895333E0;2.697780132E-1;-1.878858805E-1;-3.399522603E-1
1.200561322E0;3.516701460E-1;-2.063948363E-1;-9.614004195E-2
1.217227312E0;2.367548496E-1;-1.739042848E-1;5.872265995E-2
1.233893301E0;9.028109163E-2;-1.378184855E-1;1.544632316E-1
1.250559291E0;1.089232042E-1;-1.966743022E-1;1.564605981E-1
1.267225280E0;2.214416862E-1;-3.217096329E-1;3.914843872E-2
1.283891270E0;2.780338228E-1;-4.420844018E-1;-6.897582114E-2
1.300557260E0;1.856221855E-1;-5.138565302E-1;-1.344895363E-1
1.317223249E0;4.860265180E-2;-4.910865426E-1;-1.611211300E-1
1.333889239E0;2.277000993E-2;-4.029359818E-1;-1.283642650E-1
1.350555228E0;1.475390196E-1;-2.376869470E-1;-1.022653133E-1
1.367221218E0;2.147837877E-1;-7.257108390E-2;-1.343563795E-1
1.383887208E0;1.319595277E-1;6.325002760E-2;-1.756353378E-1
1.400553197E0;-7.896266878E-2;1.058605760E-1;-2.014679909E-1
1.417219187E0;-2.909501195E-1;6.165213138E-2;-2.075932473E-1
1.433885176E0;-3.914843798E-1;-1.078579482E-2;-1.932121962E-1
1.450551166E0;-2.976080179E-1;-9.813741595E-2;-2.173137814E-1
1.467217155E0;-6.058686972E-2;-1.038632020E-1;-2.595248520E-1
1.483883145E0;1.645832360E-1;4.340949282E-2;-2.850911915E-1
1.500549135E0;2.197106332E-1;2.487390637E-1;-2.786996067E-1
1.517215124E0;1.360874325E-1;4.440817833E-1;-2.813627720E-1
1.533881114E0;-3.581948951E-2;5.866939425E-1;-2.802974880E-1
1.550547103E0;-2.599243224E-1;5.715139508E-1;-2.585927546E-1
1.567213093E0;-4.524707198E-1;4.432828426E-1;-2.544648647E-1
1.583879083E0;-4.984102249E-1;2.612559199E-1;-2.809632719E-1
1.600545072E0;-4.087949097E-1;1.386174262E-1;-3.115896285E-1
1.617211062E0;-2.689790726E-1;1.158474237E-1;-3.226417303E-1
1.633877051E0;-9.574057162E-2;1.418132186E-1;-3.281011879E-1
1.650543041E0;8.282424510E-2;7.297056168E-2;-3.340933025E-1
1.667209030E0;2.424806356E-1;-3.608580679E-2;-2.984069884E-1
1.683875020E0;3.432812095E-1;-7.763108611E-2;-2.339585274E-1
1.700541010E0;3.439469934E-1;-6.857634336E-2;-1.813611388E-1
1.717206999E0;2.818953991E-1;-1.651158556E-2;-1.415469050E-1
1.733872989E0;1.849564016E-1;-1.904158667E-2;-1.280979514E-1
1.750538978E0;7.044056058E-2;-1.051947847E-1;-1.452753246E-1
1.767204968E0;-1.291632187E-2;-1.653821766E-1;-1.231711060E-1
1.783870958E0;-5.379581451E-2;-1.850895584E-1;-8.562056720E-2
1.800536947E0;-9.334372729E-2;-1.103879437E-1;-5.046686530E-2
1.817202937E0;-1.221058443E-1;-1.624527015E-2;-8.655266836E-3
1.833868926E0;-9.387636185E-2;2.636527456E-2;3.249054030E-2
1.850534916E0;4.434159771E-2;3.781685978E-2;1.002679393E-1
1.867200905E0;2.277000993E-1;1.611211337E-2;1.723063886E-1
1.883866895E0;3.810980618E-1;6.058686972E-2;2.277000993E-1
1.900532885E0;4.041343927E-1;1.090563685E-1;2.797648609E-1
1.917198874E0;3.403517306E-1;1.669800729E-1;3.106575012E-1
1.933864864E0;2.615222335E-1;1.462074369E-1;3.147853911E-1
1.950530853E0;2.328932583E-1;2.769685537E-2;2.901511788E-1
1.967196843E0;2.394180000E-1;-7.137266546E-2;2.523343265E-1
1.983862833E0;2.701774836E-1;-3.795001656E-2;2.006690353E-1
2.000528822E0;2.669816911E-1;-2.436790615E-2;1.957421899E-1
2.017194812E0;2.154495716E-1;-2.649843320E-2;2.904174924E-1
2.033860801E0;1.571263820E-1;-1.066595241E-1;3.773696423E-1
2.050526791E0;1.386174262E-1;-2.929475009E-1;4.311654568E-1
2.067192780E0;1.490037590E-1;-3.900196552E-1;4.226433635E-1
2.083858770E0;1.929458827E-1;-3.416832983E-1;3.693801761E-1
2.100524760E0;2.840259075E-1;-1.930790395E-1;3.422159553E-1
2.117190749E0;4.115912318E-1;-5.153212696E-2;3.181143403E-1
2.133856739E0;5.390233994E-1;9.387636185E-2;2.743053734E-1
2.150522728E0;6.086649895E-1;2.744385600E-1;2.560627460E-1
2.167188718E0;5.661876202E-1;3.671164811E-1;2.379532605E-1
2.183854708E0;4.700475931E-1;3.426154256E-1;1.868206114E-1
2.200520697E0;3.693801761E-1;2.976080179E-1;1.451421678E-1
2.217186687E0;2.912164330E-1;2.364885211E-1;1.253016293E-1
2.233852676E0;2.577938139E-1;1.641837656E-1;1.179779470E-1
2.250518666E0;1.773663908E-1;-1.318263728E-2;7.123950869E-2
2.267184655E0;1.290300637E-1;-1.106542572E-1;3.342264518E-2
2.283850645E0;8.149266988E-2;-1.019989923E-1;-3.195791040E-3
2.300516635E0;5.419528857E-2;-1.858884990E-1;-5.313002318E-2
2.317182624E0;1.018658355E-1;-3.471427858E-1;-4.833633825E-2
2.333848614E0;2.139848322E-1;-5.700492263E-1;-6.924213842E-3
2.350514603E0;3.219759464E-1;-6.653903127E-1;2.796317078E-2
2.367180593E0;3.289001584E-1;-6.107955575E-1;2.676474862E-2
2.383846583E0;2.470080107E-1;-4.543349445E-1;-3.195791040E-3
2.400512572E0;8.695214242E-2;-2.532664239E-1;-3.874896467E-2
2.417178562E0;-3.408843651E-2;-1.153147891E-1;-6.711161137E-2
2.433844551E0;-4.314317927E-2;-4.167843983E-2;-6.431528926E-2
2.450510541E0;5.326318205E-4;-3.462106921E-3;-3.222422674E-2
2.467176530E0;6.404897571E-2;-9.321057005E-4;-6.791055668E-3
2.483842520E0;1.434111148E-1;-2.343579940E-2;3.861580743E-3
2.500508510E0;1.707084924E-1;-1.207742617E-1;-4.394212738E-3
2.517174499E0;1.764342934E-1;-2.615222335E-1;-4.367581010E-2
2.533840489E0;1.846900880E-1;-4.520712495E-1;-9.081372619E-2
2.550506478E0;2.375537902E-1;-5.450155139E-1;-1.071921512E-1
2.567172468E0;3.139864504E-1;-5.456812978E-1;-6.111950055E-2
2.583838458E0;3.793670237E-1;-5.067991614E-1;5.126581341E-2
2.600504447E0;4.033354521E-1;-4.933502376E-1;1.483379602E-1
2.617170437E0;4.343612492E-1;-4.179828167E-1;1.893506050E-1
2.633836426E0;4.286354482E-1;-2.845585644E-1;1.665806025E-1
2.650502416E0;3.109238148E-1;-1.647163928E-1;9.534109384E-2
2.667168405E0;1.366200596E-1;-1.448758543E-1;9.187898599E-3
2.683834395E0;-1.265000552E-2;-1.589905918E-1;-6.910897791E-2
2.700500385E0;-9.440898895E-2;-1.828258783E-1;-1.407479644E-1
2.717166374E0;-6.471476704E-2;-2.062616795E-1;-2.031990439E-1
2.733832364E0;7.789740711E-2;-2.736395895E-1;-2.647180259E-1
2.750498353E0;2.697780132E-1;-3.580617309E-1;-3.158506751E-1
2.767164343E0;3.561975360E-1;-3.627222776E-1;-3.512706757E-1
2.783830333E0;3.126548827E-1;-2.881538272E-1;-3.691138625E-1
2.800496322E0;1.499358565E-1;-2.351569533E-1;-3.479417264E-1
2.817162312E0;-4.514054582E-2;-2.331595868E-1;-2.930806577E-1
2.833828301E0;-2.177132517E-1;-2.462090552E-1;-2.390185297E-1
2.850494291E0;-3.680485785E-1;-2.282327414E-1;-1.998700947E-1
2.867160280E0;-5.223786831E-1;-1.496695429E-1;-2.557964325E-1
2.883826270E0;-5.929523706E-1;-1.331579536E-1;-3.138532937E-1
2.900492260E0;-5.094623566E-1;-1.265000552E-2;-2.949448824E-1
2.917158249E0;-3.275685608E-1;1.065263674E-1;-3.058638275E-1
2.933824239E0;-1.502021700E-1;2.436790615E-1;-3.229080439E-1
2.950490228E0;-3.262370080E-2;3.531349003E-1;-3.004043400E-1
2.967156218E0;1.158474199E-2;4.063980877E-1;-2.696448565E-1
2.983822208E0;1.225053146E-2;3.540669978E-1;-2.724411786E-1
3.000488197E0;3.954791278E-2;3.191796243E-1;-3.193127811E-1
3.017154187E0;4.407528415E-2;2.735064328E-1;-3.418164849E-1
3.033820176E0;-2.756369673E-2;1.519332230E-1;-3.214432895E-1
3.050486166E0;-1.322258562E-1;6.138581783E-2;-2.704437971E-1
3.067152155E0;-2.384859025E-1;-1.797632314E-2;-2.221074700E-1
3.083818145E0;-2.747048736E-1;-7.590003312E-3;-1.837579757E-1
3.100484135E0;-2.410158962E-1;2.117211558E-2;-1.242363751E-1
3.117150124E0;-2.300969511E-1;6.697845459E-2;-5.446160212E-2
3.133816114E0;-1.972069293E-1;1.354216337E-1;2.117211558E-2
3.150482103E0;-8.269108832E-2;2.074600905E-1;1.030642539E-1
3.167148093E0;1.023984700E-1;2.110553533E-1;1.494032294E-1
3.183814083E0;1.701758653E-1;1.695100814E-1;1.992042959E-1
3.200480072E0;1.127847880E-1;7.869634777E-2;2.419480085E-1
3.217146062E0;-1.464737486E-2;-1.478053257E-2;2.531332672E-1
3.233812051E0;-1.153147891E-1;-6.511423737E-2;2.447443157E-1
3.250478041E0;-2.266348451E-1;-4.567318037E-2;2.415485233E-1
3.267144030E0;-3.217096329E-1;1.057274193E-1;1.809616536E-1
3.283810020E0;-3.137201369E-1;3.468764722E-1;6.578002870E-2
3.300476010E0;-1.830921918E-1;6.607297659E-1;-6.045371294E-2
3.317141999E0;-5.938844755E-2;8.061382771E-1;-9.134636074E-2
3.333807989E0;-6.524739787E-3;7.143924236E-1;-2.649843320E-2
3.350473978E0;-2.876211889E-2;4.414186180E-1;8.548741043E-2
3.367139968E0;-2.257027328E-1;2.689790726E-2;2.442116886E-1
3.383805958E0;-5.113265514E-1;-1.809616536E-1;3.536675274E-1
3.400471947E0;-7.052045465E-1;-1.825595498E-1;3.560643792E-1
3.417137937E0;-6.659229398E-1;-8.575372398E-2;2.989396155E-1
3.433803926E0;-4.235754609E-1;-3.728422895E-2;1.934785098E-1
3.450469916E0;-1.122521535E-1;1.838911325E-1;6.178529188E-2
3.467135905E0;3.661843762E-2;4.226433635E-1;4.527370632E-2
3.483801895E0;-1.944106072E-2;5.830987096E-1;4.434159771E-2
3.500467885E0;-2.033322006E-1;6.387587190E-1;3.954791278E-2
3.517133874E0;-4.141212404E-1;5.747097135E-1;4.367581010E-2
3.533799864E0;-5.853623748E-1;4.643217921E-1;4.460791498E-2
3.550465853E0;-6.597976685E-1;3.884217441E-1;3.102580272E-2
3.567131843E0;-5.882918239E-1;2.901511788E-1;-6.791055668E-3
3.583797833E0;-3.977428079E-1;1.984053552E-1;-1.012000442E-2
3.600463822E0;-1.344895363E-1;1.135837361E-1;3.249054030E-2
3.617129812E0;9.041424841E-2;-7.403582335E-2;1.904158667E-2
3.633795801E0;2.711096108E-1;-2.946785688E-1;-7.882951200E-2
3.650461791E0;4.745749533E-1;-5.352949500E-1;-3.768370301E-2
3.667127780E0;6.032055616E-1;-7.274419069E-1;2.889527567E-2
3.683793770E0;5.569997430E-1;-7.704519033E-1;-5.579318479E-2
3.700459760E0;3.745733202E-1;-6.014744639E-1;-9.813741595E-2
3.717125749E0;1.087900475E-1;-3.852259517E-1;-6.098634377E-2
3.733791739E0;-1.070589945E-1;-2.703106403E-1;-9.986846894E-2
3.750457728E0;-1.958753467E-1;-3.126548827E-1;-1.350221634E-1
3.767123718E0;-1.569932252E-1;-4.565986395E-1;-1.776327193E-1
3.783789708E0;-6.005423889E-2;-5.676523447E-1;-1.885516644E-1
3.800455697E0;8.042740822E-2;-6.090644598E-1;-1.338237375E-1
3.817121687E0;2.271674722E-1;-6.665887237E-1;-4.274370521E-2
3.833787676E0;2.760364413E-1;-6.455497742E-1;-6.045371294E-2
3.850453666E0;2.271674722E-1;-5.371592045E-1;-1.918806136E-1
3.867119655E0;2.569948509E-2;-3.098585606E-1;-2.673811615E-1
3.883785645E0;-1.356879622E-1;-7.496792823E-2;-2.580601275E-1
3.900451635E0;-9.813741595E-2;4.061317816E-2;-2.691122293E-1
3.917117624E0;9.374319762E-2;9.054740891E-3;-2.266348451E-1
3.933783614E0;2.918822467E-1;-1.689774394E-1;-2.001364082E-1
3.950449603E0;3.874896467E-1;-3.681817353E-1;-2.282327414E-1
3.967115593E0;3.012032807E-1;-5.888244510E-1;-2.354232669E-1
3.983781583E0;9.361004084E-2;-7.360971570E-1;-2.374206334E-1
4.000447572E0;-1.651158631E-1;-6.707166433E-1;-2.197106332E-1
4.017113562E0;-3.861580789E-1;-4.908202291E-1;-1.743037701E-1
4.033779551E0;-5.021386743E-1;-2.563290596E-1;-1.759016514E-1
4.050445541E0;-4.715123177E-1;-3.861580789E-2;-1.596563905E-1
4.067111530E0;-2.850911915E-1;1.149153188E-1;-1.002679393E-1
4.083777520E0;-1.249021590E-1;1.878858805E-1;-8.934898674E-2
4.100443510E0;-5.273054913E-2;1.866874546E-1;-1.667137593E-1
4.117109499E0;-5.912213027E-2;1.185105816E-1;-2.603237927E-1
4.133775489E0;-1.563274413E-1;1.837579720E-2;-2.838927507E-1
4.150441478E0;-3.025348783E-1;-5.166528746E-2;-2.954775095E-1
4.167107468E0;-4.006722867E-1;9.853689000E-3;-2.957438231E-1
4.183773458E0;-4.430165291E-1;1.050616279E-1;-2.633864284E-1
4.200439447E0;-4.781702161E-1;1.729721874E-1;-2.304964215E-1
4.217105437E0;-5.548691750E-1;2.346243113E-1;-3.251717389E-1
4.233771426E0;-5.998765826E-1;4.285022914E-1;-3.874896467E-1
4.250437416E0;-5.411539078E-1;5.833650231E-1;-3.254380524E-1
4.267103405E0;-3.633880615E-1;5.376918316E-1;-3.045322299E-1
4.283769395E0;-1.322258562E-1;3.601922691E-1;-4.187817574E-1
4.300435385E0;9.827057272E-2;2.697780132E-1;-4.599275887E-1
4.317101374E0;2.744385600E-1;2.214416862E-1;-3.733749092E-1
4.333767364E0;3.748396337E-1;3.219759464E-1;-2.693785429E-1
4.350433353E0;3.671164811E-1;4.022701681E-1;-1.798963994E-1
4.367099343E0;2.918822467E-1;4.472775757E-1;-1.245026886E-1
4.383765333E0;1.966743022E-1;4.486091435E-1;-1.276984811E-1
4.400431322E0;9.946899116E-2;4.628570378E-1;-1.166463718E-1
4.417097312E0;4.540686309E-2;3.728422821E-1;-6.631266326E-2
4.433763301E0;8.175898343E-2;1.669800729E-1;3.182475269E-2
4.450429291E0;2.813627720E-1;1.752358675E-1;7.017423958E-2
4.467095280E0;6.163882017E-1;3.560643792E-1;1.021321490E-1
4.483761270E0;8.486156464E-1;5.569997430E-1;1.440769136E-1
4.500427260E0;8.367645741E-1;8.362319469E-1;2.304964215E-1
4.517093249E0;5.856286883E-1;9.362335801E-1;3.552654386E-1
4.533759239E0;3.069290817E-1;8.570045829E-1;4.628570378E-1
4.550425228E0;8.841688186E-2;5.607281327E-1;4.257059693E-1
4.567091218E0;-5.992107838E-2;2.097237855E-1;2.781669796E-1
4.583757208E0;-1.692437679E-1;8.362319320E-2;1.715074480E-1
4.600423197E0;-2.520680130E-1;2.327601016E-1;1.532648057E-1
4.617089187E0;-3.258375227E-1;3.826959729E-1;2.243711501E-1
4.633755176E0;-3.609912097E-1;3.492733240E-1;3.518033028E-1
4.650421166E0;-4.246407151E-1;2.543316968E-2;4.430165291E-1
4.667087155E0;-4.968123436E-1;-4.209122956E-1;5.087965727E-1
4.683753145E0;-3.932154477E-1;-6.464818716E-1;5.223786831E-1
4.700419135E0;-1.002679393E-1;-5.458144546E-1;5.498092175E-1
4.717085124E0;2.134522051E-1;-2.902843356E-1;6.516750455E-1
4.733751114E0;3.685812056E-1;2.223737910E-2;6.934866309E-1
4.750417103E0;3.760380745E-1;3.171822429E-1;6.910898089E-1
4.767083093E0;2.356895804E-1;4.318312407E-1;6.571345329E-1
4.783749083E0;9.054740891E-3;4.830970466E-1;6.234455705E-1
4.800415072E0;-1.881521940E-1;3.787012100E-1;6.185187101E-1
4.817081062E0;-2.723080218E-1;1.845569313E-1;6.060018539E-1
4.833747051E0;-2.167811543E-1;-1.315600574E-1;5.732449889E-1
4.850413041E0;-1.218395308E-1;-3.804322779E-1;5.095955133E-1
4.867079030E0;-1.038632020E-1;-4.519380927E-1;4.965460002E-1
4.883745020E0;-2.231727391E-1;-4.379565120E-1;3.988080621E-1
4.900411010E0;-3.555317521E-1;-2.842922211E-1;2.103895694E-1
4.917076999E0;-4.384891391E-1;-1.556616426E-1;5.326318368E-2
4.933742989E0;-4.546012580E-1;-1.366200596E-1;9.653951973E-2
4.950408978E0;-3.371559381E-1;-1.902827173E-1;2.346243113E-1
4.967074968E0;-1.384842694E-1;-2.528669536E-1;2.472743243E-1
4.983740958E0;-1.677790284E-2;-4.709796906E-1;8.841688186E-2
5.000406947E0;5.739107728E-2;-5.508744717E-1;-5.432844535E-2
5.017072937E0;4.673844203E-2;-5.287702680E-1;-1.197090000E-1
5.033738926E0;-1.957421936E-2;-4.676507413E-1;-1.205079481E-1
5.050404916E0;-4.886896908E-2;-2.868222296E-1;-5.739107728E-2
5.067070905E0;-8.135951310E-2;-1.747032404E-1;1.358211134E-2
5.083736895E0;-1.074584723E-1;-6.777740270E-2;-2.796316985E-3
5.224496355E0;1.645832360E-1;1.546895981E0;9.876325727E-1
5.241162345E0;2.961432934E-1;1.017326832E0;1.061668396E0
5.257828334E0;3.398191035E-1;2.471411675E-1;1.258342624E0
5.274494324E0;2.928143442E-1;-2.400837988E-1;1.434777021E0
5.291160313E0;1.846900880E-1;-2.785664499E-1;1.345028520E0
5.307826303E0;4.673844203E-2;-2.143843099E-2;1.077514172E0
5.324492293E0;-1.731053367E-2;2.932138145E-1;8.396940827E-1
5.341158282E0;3.781685978E-2;4.346275628E-1;6.760429144E-1
5.357824272E0;1.782985032E-1;4.460791349E-1;5.024049878E-1
5.374490261E0;3.355580568E-1;4.058654606E-1;3.319627941E-1
5.391156251E0;4.664523304E-1;3.748396337E-1;1.711079776E-1
5.407822240E0;4.852275848E-1;2.846917212E-1;5.592634156E-2
5.424488230E0;4.576638937E-1;3.428817391E-1;-2.370211668E-2
5.441154220E0;4.217112362E-1;4.245075583E-1;6.458161026E-2
5.457820209E0;3.842938542E-1;4.074633420E-1;2.703106403E-1
5.474486199E0;3.679154217E-1;4.258391261E-1;4.898881316E-1
5.491152188E0;3.229080439E-1;2.779006660E-1;5.860281587E-1
5.507818178E0;2.504701018E-1;1.653821766E-1;5.334307551E-1
5.524484168E0;1.171789989E-1;2.392848432E-1;4.411523044E-1
5.541150157E0;-2.569948509E-2;3.926828206E-1;4.020038545E-1
5.557816147E0;-1.094558388E-1;5.056007504E-1;3.735080659E-1
5.574482136E0;-1.844237745E-1;5.795034170E-1;3.065296113E-1
5.591148126E0;-3.396859467E-1;6.295707822E-1;1.613874435E-1
5.607814115E0;-5.293028951E-1;6.804371476E-1;4.620581120E-2
5.624480105E0;-6.418213248E-1;6.988129616E-1;8.109319210E-2
5.641146095E0;-6.464818716E-1;6.845650673E-1;1.981390417E-1
5.657812084E0;-5.406212807E-1;5.203812718E-1;2.901511788E-1
5.674478074E0;-4.178496599E-1;2.648511827E-1;2.150501013E-1
5.691144063E0;-4.016043842E-1;-3.968106955E-2;1.382179558E-1
5.707810053E0;-5.001412630E-1;-1.327584833E-1;1.077247858E-1
5.724476043E0;-7.004108429E-1;-6.378266215E-2;7.656582445E-2
5.741142032E0;-8.242477179E-1;-1.427453309E-1;1.241032109E-1
5.757808022E0;-7.649924755E-1;-5.764408112E-1;1.676458716E-1
5.774474011E0;-5.950828791E-1;-1.060469985E0;7.097318769E-2
5.791140001E0;-4.515386224E-1;-8.226498365E-1;-1.771000773E-2
5.807805990E0;-4.519380927E-1;-1.059937328E-1;-2.596580051E-2
5.824471980E0;-3.930822909E-1;3.820301592E-1;3.368896246E-2
5.841137970E0;-2.890859246E-1;5.721797347E-1;4.953476042E-2
5.857803959E0;-2.564622164E-1;5.664539337E-1;6.910897791E-2
5.874469949E0;-4.135886133E-1;5.745765567E-1;5.060002208E-2
5.891135938E0;-6.198502779E-1;6.069339514E-1;-4.527370445E-3
5.907801928E0;-6.986798048E-1;3.957454562E-1;-1.884185076E-1
5.924467918E0;-9.121319652E-1;1.221058443E-1;2.436790615E-2
5.941133907E0;-1.123719931E0;2.876211889E-2;7.040061355E-1
5.957799897E0;-1.118127346E0;2.510027587E-1;1.120790482E0
5.974465886E0;-1.118260503E0;1.093626261E0;1.016128302E0
5.991131876E0;-1.215998411E0;1.523593307E0;8.174566627E-1
6.007797865E0;-1.172056317E0;1.637709737E0;8.672577739E-1
6.024463855E0;-1.048086286E0;1.863012910E0;6.303697824E-1
6.041129845E0;-1.090829968E0;1.439970136E0;1.833585054E-1
6.057795834E0;-7.700524330E-1;1.234507442E0;-1.771000773E-2
6.074461824E0;-5.145223141E-1;1.352751613E0;-8.881635964E-2
6.091127813E0;-3.885549009E-1;1.015462518E0;-2.640522122E-1
6.107793803E0;-1.219726875E-1;9.110667109E-1;-4.739091694E-1
6.124459793E0;3.966775537E-1;4.190480709E-1;-5.431513190E-1
6.141125782E0;1.048752069E0;7.337003201E-2;-7.076013684E-1
6.157791772E0;1.510277510E0;-1.376853287E-1;-9.969536066E-1
6.174457761E0;1.729455471E0;-4.459459782E-1;-1.235040069E0
6.191123751E0;1.712943912E0;-3.573959470E-1;-1.179646373E0
6.207789740E0;1.059937358E0;-2.693785429E-1;-8.970851302E-1
6.224455730E0;2.810964286E-1;-4.061317816E-2;-5.612607598E-1
6.241121720E0;-1.246358454E-1;2.664490640E-1;-3.419496417E-1
6.257787709E0;-4.583296776E-1;4.735096991E-1;-6.058686972E-2
6.274453699E0;-3.974764943E-1;2.141179889E-1;1.708416492E-1
6.291119688E0;-9.587372653E-3;-2.929474926E-3;9.094688296E-2
6.307785678E0;5.604618192E-1;-4.593949318E-1;-7.030740380E-2
6.324451668E0;1.130511045E0;-7.657914162E-1;-1.685779691E-1
6.341117657E0;1.257410526E0;-8.801741004E-1;-1.786979735E-1
6.357783647E0;8.263782859E-1;-1.096289396E0;-3.848264739E-2
6.374449636E0;3.695133328E-1;-1.639174461E0;3.596596420E-1
6.391115626E0;1.384842694E-1;-2.556765795E0;3.082606792E-1
6.407781615E0;4.793686327E-3;-3.090862513E0;-6.910897791E-2
6.424447605E0;6.604634225E-2;-3.111768246E0;-8.082687855E-2
6.441113595E0;3.810980618E-1;-3.233607769E0;2.937464416E-1
6.457779584E0;7.080008388E-1;-3.193527222E0;4.129228294E-1
6.474445574E0;8.041408658E-1;-2.926012993E0;2.466085255E-1
6.491111563E0;7.155908346E-1;-2.805238724E0;4.149201810E-1
6.507777553E0;6.317013502E-1;-2.536392689E0;6.780403256E-1
6.524443543E0;5.587307811E-1;-2.381263733E0;8.056056499E-1
6.541109532E0;8.680567145E-1;-2.772348642E0;1.007872581E0
6.557775522E0;1.476721764E0;-3.223221540E0;1.188701034E0
6.574441511E0;1.630652308E0;-3.489271164E0;1.343830109E0
6.591107501E0;1.099085808E0;-3.110836029E0;1.719601870E0
6.607773490E0;3.957454562E-1;-2.281794786E0;1.967408776E0
6.624439480E0;5.898897350E-2;-1.759416103E0;1.944239259E0
6.641105470E0;2.858901322E-1;-1.992575645E0;1.812013507E0
6.657771459E0;5.290365815E-1;-2.315217257E0;1.594033837E0
6.674437449E0;4.141212404E-1;-2.371410131E0;1.495363832E0
6.691103438E0;6.844318658E-2;-2.146506310E0;1.500823259E0
6.707769428E0;-2.820285559E-1;-2.075133562E0;1.642902851E0
6.724435418E0;-5.708481669E-1;-2.068475723E0;1.928260326E0
6.741101407E0;-9.097351432E-1;-1.826660872E0;2.100699902E0
6.757767397E0;-1.131842613E0;-1.674594402E0;2.116678953E0
6.774433386E0;-1.139166355E0;-1.742238641E0;2.075666189E0
6.791099376E0;-1.199087381E0;-1.743570209E0;2.131059885E0
6.807765365E0;-1.604819655E0;-1.268196344E0;2.209490061E0
6.824431355E0;-2.061950922E0;-7.249119282E-1;2.224403620E0
6.841097345E0;-2.276734829E0;-5.629918575E-1;2.198837280E0
6.857763334E0;-2.178064585E0;-8.832367063E-1;2.149169445E0
6.874429324E0;-1.859683990E0;-1.406147957E0;2.141313076E0
6.891095313E0;-1.581916451E0;-1.533713341E0;2.306562185E0
6.907761303E0;-1.388571143E0;-1.269927382E0;2.588324308E0
6.924427293E0;-1.204679966E0;-8.744482994E-1;2.860632420E0
6.941093282E0;-1.046222091E0;-6.266413331E-1;3.031474113E0
6.957759272E0;-9.169256687E-1;-6.343644857E-1;3.128812551E0
6.974425261E0;-8.265114427E-1;-8.937562108E-1;3.159305573E0
6.991091251E0;-9.596694112E-1;-1.216797352E0;3.041860342E0
7.007757240E0;-1.115996838E0;-1.407612801E0;2.941459179E0
7.024423230E0;-1.149685740E0;-1.452620149E0;2.879407644E0
7.041089220E0;-9.954888821E-1;-1.311872125E0;2.878076077E0
7.057755209E0;-7.145255804E-1;-9.117324948E-1;2.770750761E0
7.074421199E0;-3.818970025E-1;-4.595280886E-1;2.467683315E0
7.091087188E0;9.946899116E-2;-1.182442605E-1;2.002029896E0
7.107753178E0;5.362271070E-1;2.756369673E-2;1.286971688E0
7.124419168E0;8.017440438E-1;3.115896136E-2;5.795034170E-1
7.141085157E0;9.038761854E-1;-1.424790081E-2;6.697845459E-2
7.157751147E0;7.837677002E-1;-5.099949613E-2;-2.780338228E-1
7.174417136E0;4.426170290E-1;9.174583107E-2;-5.018723607E-1
7.191083126E0;-1.006674170E-1;3.547327816E-1;-6.681866050E-1
7.207749115E0;-6.273071170E-1;7.559376955E-1;-7.780419588E-1
7.224415105E0;-1.085104227E0;1.159938931E0;-8.468846083E-1
7.241081095E0;-1.426521182E0;1.423192263E0;-8.367645741E-1
7.257747084E0;-1.532914400E0;1.550757527E0;-7.910913825E-1
7.274413074E0;-1.401620626E0;1.524259090E0;-7.576687932E-1
7.291079063E0;-9.693899155E-1;1.288436413E0;-7.996135354E-1
7.307745053E0;-5.290365815E-1;9.512804151E-1;-9.219856858E-1
7.324411043E0;-2.769685388E-1;6.566019058E-1;-1.100683689E0
7.341077032E0;-1.832253486E-1;4.257059693E-1;-1.252217412E0
7.357743022E0;-2.069274634E-1;2.508696020E-1;-1.285506845E0
7.374409011E0;-3.322291076E-1;1.613874435E-1;-1.207076907E0
7.391075001E0;-5.194491744E-1;1.507348120E-1;-1.107208371E0
7.407740990E0;-5.102612972E-1;2.367548496E-1;-9.246488214E-1
7.424406980E0;-3.697796464E-1;3.637875319E-1;-7.684545517E-1
7.441072970E0;-2.278332561E-1;4.616586268E-1;-6.334323883E-1
7.457738959E0;-1.111868918E-1;5.962813497E-1;-5.771065950E-1
7.474404949E0;-1.012000442E-2;7.313035131E-1;-5.910881758E-1
7.491070938E0;1.474058628E-1;7.532745600E-1;-5.178512931E-1
7.507736928E0;2.343579978E-1;6.038713455E-1;-3.557980657E-1
7.524402918E0;2.747048736E-1;4.404865205E-1;-1.427453309E-1
7.541068907E0;3.262369931E-1;1.676458716E-1;1.199753210E-1
7.557734897E0;3.763043880E-1;-1.004010960E-1;4.059986174E-1
7.574400886E0;3.664506972E-1;-3.071953952E-1;6.356960535E-1
7.591066876E0;3.078611791E-1;-4.635228515E-1;7.733814120E-1
7.607732865E0;1.619200706E-1;-5.006738901E-1;7.920235395E-1
7.624398855E0;-1.456748098E-1;-4.198470414E-1;8.134619594E-1
7.641064845E0;-5.062665343E-1;-2.065279931E-1;9.909614921E-1
7.657730834E0;-7.364966273E-1;-8.189214021E-2;1.257943153E0
7.674396824E0;-7.562040091E-1;-2.197106332E-1;1.531715989E0
7.691062813E0;-4.952144325E-1;-5.286371112E-1;1.788045049E0
7.707728803E0;-3.022685647E-2;-9.576719999E-1;1.915477157E0
7.724394793E0;5.603286624E-1;-1.286572218E0;1.692437649E0
7.741060782E0;1.046088934E0;-1.460210085E0;1.229447365E0
7.757726772E0;1.295893192E0;-1.496295929E0;6.631265879E-1
7.774392761E0;1.330780625E0;-1.455150127E0;1.846900880E-1
7.791058751E0;1.263003230E0;-1.421194911E0;-1.728390306E-1
7.807724740E0;1.181111097E0;-1.376720071E0;-4.213117659E-1
7.824390730E0;1.020788908E0;-1.336373210E0;-6.127929091E-1
7.841056720E0;7.699192762E-1;-1.249154806E0;-7.603319287E-1
7.857722709E0;4.771049619E-1;-1.127581596E0;-8.366314173E-1
7.874388699E0;2.101232558E-1;-9.832383394E-1;-9.054740667E-1
7.891054688E0;-7.989477599E-4;-7.878956199E-1;-9.632646441E-1
7.907720678E0;-1.261005849E-1;-5.551354885E-1;-9.712541103E-1
7.924386668E0;-1.376853287E-1;-3.980091214E-1;-9.948230982E-1
7.941052657E0;-9.560741484E-2;-3.356912136E-1;-1.032906294E0
7.957718647E0;-3.115896136E-2;-3.684480488E-1;-1.091495752E0
7.974384636E0;3.621896356E-2;-4.286354482E-1;-1.175917864E0
7.991050626E0;5.619265884E-2;-4.458128214E-1;-1.235173225E0
8.007716615E0;1.691105962E-2;-4.016043842E-1;-1.247423768E0
8.024382605E0;-8.708529919E-2;-3.792338669E-1;-1.269394755E0
8.041048595E0;-2.479401082E-1;-3.371559381E-1;-1.296958447E0
8.057714584E0;-3.601922691E-1;-2.328932583E-1;-1.323057413E0
8.074380574E0;-3.986749053E-1;-1.071921512E-1;-1.334775329E0
8.091046563E0;-4.338286221E-1;1.544632297E-2;-1.396161199E0
8.107712553E0;-4.187817574E-1;4.460791498E-2;-1.348490596E0
8.124378543E0;-3.047985733E-1;8.575372398E-2;-1.130644202E0
8.141044532E0;-2.516685426E-2;8.775109053E-2;-9.294425249E-1
8.157710522E0;2.492716908E-1;-1.677790284E-2;-7.985482812E-1
8.174376511E0;3.822965026E-1;-1.668469161E-1;-6.982803345E-1
8.191042501E0;3.784348965E-1;-2.793653905E-1;-5.970802903E-1
8.207708490E0;2.797648609E-1;-2.892190814E-1;-4.235754609E-1
8.224374480E0;1.749695539E-1;-2.130527347E-1;-1.898832470E-1
8.241040470E0;1.656484902E-1;-5.259739235E-2;7.376950979E-2
8.257706459E0;2.463422120E-1;1.181111038E-1;3.569964767E-1
8.274372449E0;2.456764281E-1;2.149169445E-1;6.060018539E-1
8.291038438E0;1.890842989E-2;2.435459048E-1;7.673892975E-1
8.307704428E0;-3.683148921E-1;3.171822429E-1;9.138630629E-1
8.324370418E0;-7.751124501E-1;4.118575454E-1;1.091495752E0
8.341036407E0;-1.054477811E0;5.717802644E-1;1.295626879E0
8.357702397E0;-1.128913164E0;7.455514073E-1;1.488839149E0
8.374368386E0;-1.034237862E0;8.855004311E-1;1.654620767E0
8.391034376E0;-7.988145947E-1;9.226514697E-1;1.728656530E0
8.407700365E0;-5.174518228E-1;8.065377474E-1;1.677257657E0
8.424366355E0;-3.371559381E-1;5.914876461E-1;1.567135930E0
8.441032345E0;-3.034669757E-1;4.201133549E-1;1.440502763E0
8.457698334E0;-3.049317300E-1;2.560627460E-1;1.288969040E0
8.474364324E0;-2.660495937E-1;2.396843210E-2;1.101349473E0
8.491030313E0;-2.150501013E-1;-2.371543199E-1;8.821714520E-1
8.507696303E0;-2.411490530E-1;-3.779022694E-1;6.508761048E-1
8.524362293E0;-3.571296334E-1;-2.530001104E-1;4.544681013E-1
8.541028282E0;-5.283707380E-1;1.701758653E-1;3.464770019E-1
8.557694272E0;-8.633961678E-1;6.371608377E-1;2.761695981E-1
8.574360261E0;-1.244227886E0;1.068725705E0;2.368880063E-1
8.591026251E0;-1.568334341E0;1.434777021E0;2.125200927E-1
8.607692240E0;-1.732518196E0;1.705886602E0;1.707084924E-1
8.624358230E0;-1.744369268E0;1.853825092E0;1.177116334E-1
8.641024220E0;-1.662210703E0;1.906955123E0;8.948214352E-2
8.657690209E0;-1.544632316E0;1.870736122E0;8.801741153E-2
8.674356199E0;-1.322258472E0;1.730387568E0;9.440898895E-2
8.691022188E0;-9.233172536E-1;1.519598603E0;1.041295230E-1
8.707688178E0;-5.564671159E-1;1.262204289E0;8.655267209E-2
8.724354168E0;-3.538006842E-1;1.102547884E0;2.809632942E-2
8.741020157E0;-3.420827985E-1;9.711209536E-1;-4.380896688E-2
8.757686147E0;-4.989428520E-1;9.096019864E-1;-4.567318037E-2
8.774352136E0;-5.416865349E-1;9.490167499E-1;6.671213359E-2
8.791018126E0;-3.872233331E-1;9.376983047E-1;2.141179889E-1
8.807684115E0;-1.490037590E-1;8.402267098E-1;3.380880356E-1
8.824350105E0;4.593949392E-2;6.194508076E-1;4.297007322E-1
8.841016095E0;1.645832360E-1;2.876211703E-1;4.711128473E-1
8.857682084E0;2.616553903E-1;-8.615319431E-2;5.484775901E-1
8.874348074E0;3.306311965E-1;-3.968107104E-1;6.229129434E-1
8.891014063E0;4.862928391E-1;-5.601955056E-1;6.889592409E-1
8.907680053E0;5.271723270E-1;-5.992107987E-1;6.340981722E-1
8.924346043E0;3.565970063E-1;-5.314334035E-1;5.394228697E-1
8.941012032E0;3.795001656E-2;-3.692470193E-1;5.074649453E-1
8.957678022E0;-2.526006401E-1;-2.045306265E-1;5.438171029E-1
8.974344011E0;-3.211769760E-1;-1.280979514E-1;6.263750196E-1
8.991010001E0;-1.605884880E-1;-1.515337527E-1;6.880271435E-1
9.007675990E0;1.636511236E-1;-2.828274965E-1;6.227797270E-1
9.024341980E0;4.214449227E-1;-4.862928391E-1;3.889544010E-1
9.041007970E0;5.362271070E-1;-6.724476814E-1;6.325002760E-2
9.057673959E0;5.412870646E-1;-8.310387731E-1;-2.581932843E-1
9.074339949E0;5.384907722E-1;-9.933583736E-1;-5.475454926E-1
9.091005938E0;5.563339591E-1;-1.138766885E0;-7.773761153E-1
9.107671928E0;5.616602302E-1;-1.257144213E0;-9.434241056E-1
9.124337918E0;4.448807240E-1;-1.314668536E0;-1.054078341E0
9.141003907E0;2.637858987E-1;-1.290167451E0;-1.125051618E0
9.157669897E0;1.342232227E-1;-1.212935805E0;-1.117594719E0
9.174335886E0;8.535424620E-2;-1.081508875E0;-1.057806849E0
9.191001876E0;1.146489978E-1;-9.246488214E-1;-9.968204498E-1
9.207667865E0;2.344911546E-1;-7.990809083E-1;-9.655283093E-1
9.224333855E0;3.613906801E-1;-7.249119282E-1;-9.973530769E-1
9.240999845E0;4.375570416E-1;-7.171887755E-1;-1.074584723E0
9.257665834E0;4.330296814E-1;-7.314366698E-1;-1.166996360E0
9.274331824E0;3.854922652E-1;-7.462171912E-1;-1.238502145E0
9.290997813E0;3.492733240E-1;-7.344992757E-1;-1.268462658E0
9.307663803E0;2.912164330E-1;-6.372939944E-1;-1.202283144E0
9.324329793E0;1.545963883E-1;-5.454149842E-1;-1.102414727E0
9.340995782E0;-2.596580051E-2;-4.277033508E-1;-9.877657294E-1
9.357661772E0;-1.832253486E-1;-3.095922470E-1;-9.547425508E-1
9.374327761E0;-3.022685647E-1;-2.494048476E-1;-8.886961937E-1
9.390993751E0;-2.716422379E-1;-1.326253265E-1;-7.824361324E-1
9.407659740E0;-9.201214463E-2;-3.475422785E-2;-6.765755415E-1
9.424325730E0;1.786979735E-1;9.321057005E-4;-6.130592227E-1
9.440991720E0;3.926828206E-1;1.051947847E-2;-5.451486707E-1
9.457657709E0;4.853607416E-1;-5.446160212E-2;-4.289017618E-1
9.474323699E0;4.753738940E-1;-1.525990218E-1;-2.794985473E-1
9.490989688E0;4.026696682E-1;-2.259690464E-1;-1.311605871E-1
9.507655678E0;3.585943878E-1;-2.984069884E-1;-1.970737800E-2
9.524321668E0;3.740406930E-1;-3.451454341E-1;8.641951531E-2
9.540987657E0;4.162517786E-1;-3.179811835E-1;1.930790395E-1
9.557653647E0;4.387554526E-1;-2.395511568E-1;2.992059290E-1
9.574319636E0;3.238401413E-1;-1.648495495E-1;4.030691385E-1
9.590985626E0;7.137266546E-2;-3.581948951E-2;5.037365556E-1
9.607651615E0;-1.778990328E-1;1.399490088E-1;6.127929091E-1
9.624317605E0;-3.595264852E-1;4.187817574E-1;7.579351068E-1
9.640983595E0;-4.672512710E-1;7.584677339E-1;9.254477620E-1
9.657649584E0;-5.050681233E-1;1.036501527E0;1.055409908E0
9.674315574E0;-4.773712754E-1;1.146889448E0;1.125584245E0
9.690981563E0;-4.376901984E-1;1.100550532E0;1.137967944E0
9.707647553E0;-3.585943878E-1;9.098683000E-1;1.121722579E0
9.724313543E0;-2.249037921E-1;5.885581374E-1;1.039697289E0
9.740979532E0;-4.807002097E-2;2.360890508E-1;9.155941010E-1
9.757645522E0;1.031974182E-1;-4.833633825E-2;7.733814120E-1
9.774311511E0;1.181111038E-1;-2.000032514E-1;5.904223919E-1
9.790977501E0;3.648528084E-2;-2.371543199E-1;3.853591084E-1
9.807643490E0;-1.214400530E-1;-1.311605871E-1;1.960085034E-1
9.824309480E0;-3.351585865E-1;1.065263674E-1;6.604634225E-2
9.840975470E0;-5.551354885E-1;3.810980618E-1;-1.864211401E-3
9.857641459E0;-6.960166097E-1;5.950828791E-1;-4.793686420E-2
9.874307449E0;-7.993472219E-1;7.795066833E-1;-8.468846232E-2
9.890973438E0;-8.392946124E-1;9.056072235E-1;-1.266332120E-1
9.907639428E0;-8.341014385E-1;9.677920341E-1;-1.592569202E-1
9.924305418E0;-8.036082387E-1;9.556746483E-1;-1.543300748E-1
9.940971407E0;-7.768434882E-1;8.893619776E-1;-1.267663687E-1
9.957637397E0;-7.323687673E-1;7.663240433E-1;-8.455529809E-2
9.974303386E0;-6.663224101E-1;6.275734305E-1;-3.328948980E-3
9.990969376E0;-5.691171288E-1;4.953475893E-1;1.557948142E-1
1.000763536E1;-4.447475672E-1;3.522028029E-1;3.423491120E-1
1.002430136E1;-2.488722205E-1;2.797648609E-1;5.170523524E-1
1.004096734E1;-2.862896025E-2;2.522011697E-1;6.346307993E-1
1.005763333E1;1.846900880E-1;2.462090552E-1;7.053377032E-1
1.007429932E1;2.786996067E-1;2.484727502E-1;7.295724154E-1
1.009096531E1;2.607232630E-1;2.751043439E-1;7.572692633E-1
1.010763130E1;2.249037921E-1;2.776343226E-1;7.873629928E-1
1.012429729E1;2.560627460E-1;1.916143000E-1;8.001461625E-1
1.014096328E1;3.563306928E-1;2.916159295E-2;8.281093240E-1
1.015762927E1;4.478102028E-1;-1.511342824E-1;8.827040792E-1
1.017429526E1;4.649875760E-1;-2.829606533E-1;9.032104015E-1
1.019096125E1;4.751075804E-1;-3.386206925E-1;8.327698708E-1
1.020762724E1;4.530033767E-1;-2.235722095E-1;7.302381992E-1
1.022429323E1;3.125217259E-1;4.926844314E-2;6.527402997E-1
1.024095922E1;4.420844093E-2;3.203780353E-1;5.974797606E-1
1.025762521E1;-1.609879732E-1;4.359591305E-1;6.030724049E-1
1.027429120E1;-2.603237927E-1;3.581948876E-1;6.592650414E-1
1.029095719E1;-1.745700836E-1;9.294424951E-2;7.797729969E-1
1.030762318E1;1.998700947E-1;-3.523359597E-1;9.520793557E-1
1.032428917E1;8.739156723E-1;-9.318393469E-1;1.054078341E0
1.034095516E1;1.626923919E0;-1.524259090E0;9.367662072E-1
1.035762115E1;2.192978382E0;-2.088715792E0;5.567334294E-1
1.037428714E1;2.379932165E0;-2.559029579E0;4.447475821E-2
1.039095313E1;2.260622501E0;-2.907770157E0;-3.842938542E-1
1.040761912E1;1.960750937E0;-3.145190954E0;-6.665887237E-1
1.042428510E1;1.592169642E0;-3.235072613E0;-8.274435401E-1
1.044095109E1;1.191097856E0;-3.170357704E0;-9.347688556E-1
1.045761708E1;8.191877604E-1;-2.931738615E0;-1.025316238E0
1.047428307E1;5.049349666E-1;-2.539854765E0;-1.086702108E0
1.049094906E1;2.302301079E-1;-2.064880371E0;-1.110670447E0
1.050761505E1;2.423474751E-2;-1.625592351E0;-1.131842613E0
1.052428104E1;-6.990792602E-2;-1.320660591E0;-1.145025253E0
1.054094703E1;-1.315600574E-1;-1.143027902E0;-1.179912686E0
1.055761302E1;-1.786979735E-1;-1.090829968E0;-1.241165280E0
1.057427901E1;-2.332927436E-1;-1.123586774E0;-1.304814816E0
1.059094500E1;-3.055975139E-1;-1.205479026E0;-1.321592689E0
1.060761099E1;-3.707117438E-1;-1.295893192E0;-1.297890544E0
1.062427698E1;-4.311654568E-1;-1.367665410E0;-1.257011056E0
1.064094297E1;-4.912196994E-1;-1.368464351E0;-1.205079436E0
1.065760896E1;-5.306344628E-1;-1.278316379E0;-1.148354173E0
1.067427495E1;-5.415533781E-1;-1.139698982E0;-1.117594719E0
1.069094094E1;-5.560676455E-1;-9.600688815E-1;-1.142362118E0
1.070760693E1;-5.844302773E-1;-7.337003350E-1;-1.220925331E0
1.072427292E1;-6.074665785E-1;-4.254396558E-1;-1.304681659E0
1.074093891E1;-5.805686712E-1;-1.689774394E-1;-1.259674311E0
1.075760490E1;-4.667186439E-1;8.056056499E-2;-1.207476377E0
1.077427089E1;-4.082622826E-1;2.358227372E-1;-1.205878496E0
1.079093688E1;-4.575307369E-1;3.484743834E-1;-1.168327928E0
1.080760286E1;-4.873581231E-1;4.788360000E-1;-1.099884748E0
1.082426886E1;-3.673827946E-1;6.318345070E-1;-9.968204498E-1
1.084093484E1;-7.896266878E-2;7.986814380E-1;-8.739156723E-1
1.085760083E1;2.825611830E-1;9.115993381E-1;-7.279745340E-1
1.087426682E1;5.972134471E-1;9.936246872E-1;-6.125265956E-1
1.089093281E1;7.263766527E-1;1.229314208E0;-6.490118504E-1
1.090759880E1;7.245124578E-1;1.708549738E0;-8.165245652E-1
1.092426479E1;4.573975801E-1;2.276734829E0;-8.085350990E-1
1.094093078E1;-3.221091032E-1;2.786463261E0;-2.858901322E-1
1.095759677E1;-1.336772680E0;3.050648689E0;3.715106845E-1
1.097426276E1;-1.973667264E0;3.036667109E0;8.048067093E-1
1.099092875E1;-1.911216140E0;2.708432913E0;9.096019864E-1
1.100759474E1;-1.494698048E0;2.081258774E0;8.318377733E-1
1.102426073E1;-9.346356988E-1;1.303616405E0;8.057388067E-1
1.104092672E1;-4.422175586E-1;5.925529003E-1;9.643298984E-1
1.105759271E1;-3.462106921E-3;2.356895804E-2;1.164999008E0
1.107425870E1;3.138532937E-1;-3.348922431E-1;1.270859480E0
1.109092469E1;4.695149362E-1;-4.736428559E-1;1.283775806E0
1.110759068E1;4.183822870E-1;-4.430165291E-1;1.275120616E0
1.112425667E1;1.782985032E-1;-2.657832801E-1;1.263935328E0
1.114092266E1;-1.371526867E-1;8.388951421E-3;1.281911612E0
1.115758865E1;-3.993407190E-1;2.416816950E-1;1.279381633E0
1.117425464E1;-5.101281404E-1;3.233075142E-1;1.226384759E0
1.119092063E1;-5.396891832E-1;3.089264631E-1;1.168594241E0
1.120758662E1;-4.908202291E-1;2.310290486E-1;1.146223664E0
1.122425260E1;-3.569964767E-1;1.083905771E-1;1.163401008E0
1.124091860E1;-2.047969401E-1;-8.602003753E-2;1.173387885E0
1.125758458E1;-5.952160433E-2;-2.926811874E-1;1.164333105E0
1.127425057E1;9.467530251E-2;-4.239749312E-1;1.151150465E0
1.129091656E1;2.400837988E-1;-4.219775498E-1;1.149286270E0
1.130758255E1;3.950796425E-1;-3.856254518E-1;1.115331054E0
1.132424854E1;4.692486227E-1;-3.198454082E-1;1.015196204E0
1.134091453E1;4.383559823E-1;-2.352901101E-1;9.022783041E-1
1.135758052E1;3.557980657E-1;-1.171789989E-1;8.125298619E-1
1.137424651E1;2.344911546E-1;1.384842768E-2;7.322356105E-1
1.139091250E1;9.467530251E-2;1.010668874E-1;6.850976944E-1
1.140757849E1;-4.993423447E-2;1.418132186E-1;7.013429403E-1
1.142424448E1;-1.462074369E-1;1.376853287E-1;7.427550554E-1
1.144091047E1;-9.387636185E-2;1.442100704E-1;7.018755674E-1
1.145757646E1;3.488738462E-2;1.560611278E-1;5.930855274E-1
1.147424245E1;8.921582997E-2;2.221074700E-1;3.982754350E-1
1.149090844E1;-7.723161485E-3;3.514038324E-1;1.332911104E-1
1.150757443E1;-1.893506050E-1;4.009386003E-1;-1.597895473E-1
1.152424042E1;-3.412838280E-1;3.253048956E-1;-3.390201628E-1
1.154090641E1;-3.877559602E-1;7.230477035E-2;-3.057306707E-1
1.155757240E1;-3.109238148E-1;-3.764375448E-1;-1.761679798E-1
1.157423839E1;4.633896798E-2;-9.082704186E-1;-7.603318989E-2
1.159090438E1;5.942839384E-1;-1.368730664E0;-1.695100814E-1
1.160757036E1;1.072986841E0;-1.636245012E0;-5.143891573E-1
1.162423636E1;1.370994329E0;-1.636111736E0;-1.026780963E0
1.164090234E1;1.442899585E0;-1.486042738E0;-1.489638090E0
1.165756833E1;1.440103292E0;-1.401087999E0;-1.779389739E0
1.167423432E1;1.496429086E0;-1.484844327E0;-1.896835089E0
1.169090031E1;1.616404414E0;-1.678056598E0;-1.808018684E0
1.170756630E1;1.756486535E0;-1.939445615E0;-1.654887080E0
1.172423229E1;1.906422496E0;-2.208691120E0;-1.546363354E0
1.174089828E1;2.028927803E0;-2.382328987E0;-1.544765472E0
1.175756427E1;2.091378927E0;-2.411224365E0;-1.613341808E0
1.177423026E1;2.009087324E0;-2.380331516E0;-1.692837119E0
1.179089625E1;1.737711310E0;-2.224536896E0;-1.754888654E0
1.180756224E1;1.347292185E0;-1.982588768E0;-1.779522896E0
1.182422823E1;9.121319652E-1;-1.678589225E0;-1.734648705E0
1.184089422E1;5.145223141E-1;-1.391367435E0;-1.675393343E0
1.185756021E1;2.370211631E-1;-1.194426894E0;-1.649693847E0
1.187422620E1;6.764423847E-2;-1.080576777E0;-1.640106559E0
1.189089219E1;-5.566002429E-2;-9.874994159E-1;-1.624793410E0
1.190755818E1;-2.034653574E-1;-8.430230021E-1;-1.615339160E0
1.192422417E1;-3.844270110E-1;-5.929523706E-1;-1.621331215E0
1.194089016E1;-5.569997430E-1;-2.412822098E-1;-1.456481695E0
1.195755615E1;-6.032055616E-1;2.543316968E-2;-1.363404274E0
1.197422214E1;-5.131907463E-1;2.372874767E-1;-1.316399574E0
1.199088813E1;-4.540686309E-1;4.223770201E-1;-1.255413175E0
1.200755412E1;-5.107939243E-1;5.748428702E-1;-1.133041024E0
1.202422011E1;-5.665870905E-1;6.580666304E-1;-9.217193723E-1
1.204088610E1;-5.652555227E-1;6.431529522E-1;-6.434192657E-1
1.205755208E1;-4.550007284E-1;5.546028614E-1;-3.508712053E-1
1.207421807E1;-1.663142890E-1;4.817654788E-1;-3.475422785E-2
1.209088406E1;3.038664460E-1;3.793670237E-1;2.656501234E-1
1.210755005E1;7.700524330E-1;2.536658943E-1;5.817670822E-1
1.212421604E1;1.133706808E0;-1.797632314E-2;9.760478139E-1
1.214088203E1;1.163800478E0;-5.199818015E-1;1.543300748E0
1.215754802E1;9.870999455E-1;-1.046222091E0;1.923200369E0
1.217421401E1;7.416898012E-1;-1.381247520E0;1.944638729E0
1.219088000E1;6.977477074E-1;-1.393364787E0;1.874198198E0
1.220754599E1;7.735145688E-1;-1.119059443E0;1.976596713E0
1.222421198E1;9.989509583E-1;-6.255760789E-1;2.232126713E0
1.224087797E1;1.399623275E0;-8.242477477E-2;2.472077370E0
1.225754396E1;1.677390814E0;3.153180480E-1;2.487390518E0
1.227420995E1;1.739042878E0;5.744433999E-1;2.249703646E0
1.229087594E1;1.591370702E0;6.455497742E-1;1.878059745E0
1.230754193E1;1.257144213E0;6.672545075E-1;1.512807488E0
1.232420792E1;7.866972089E-1;7.175882459E-1;1.190831542E0
1.234087391E1;2.605901062E-1;8.005456328E-1;9.801757336E-1
1.235753990E1;-2.406164259E-1;8.932235837E-1;8.241145611E-1
1.237420589E1;-6.205160618E-1;9.906951785E-1;6.578003168E-1
1.239087188E1;-8.672577739E-1;1.128513694E0;5.197154880E-1
1.240753786E1;-1.021321535E0;1.324522138E0;4.624575675E-1
1.242420386E1;-1.135571003E0;1.516136527E0;4.476770461E-1
1.244086985E1;-1.185238957E0;1.660213351E0;4.209122956E-1
1.245753583E1;-1.152215838E0;1.708283424E0;3.908185959E-1
1.247420182E1;-1.052214146E0;1.668336034E0;3.543333113E-1
1.249086781E1;-1.008538365E0;1.571929693E0;4.101265073E-1
1.250753380E1;-1.098420024E0;1.493100166E0;5.712476373E-1
1.252419979E1;-1.197090030E0;1.385375381E0;6.589987278E-1
1.254086578E1;-1.221191645E0;1.174985766E0;6.198502779E-1
1.255753177E1;-1.186570525E0;8.739156723E-1;4.945486486E-1
1.257419776E1;-1.139698982E0;6.083986759E-1;3.837612271E-1
1.259086375E1;-1.067260981E0;3.818970025E-1;3.957454562E-1
1.260752974E1;-8.775109053E-1;2.364885211E-1;5.792371035E-1
1.262419573E1;-5.183839202E-1;1.055942550E-1;7.422224283E-1
1.264086172E1;-1.034637317E-1;1.731053460E-3;7.964177132E-1
1.265752771E1;3.018690944E-1;-4.141212255E-2;7.303713560E-1
1.267419370E1;6.367613673E-1;-1.331579592E-2;6.442182064E-1
1.269085969E1;8.773777485E-1;3.355580568E-2;5.696497560E-1
1.270752568E1;1.045156837E0;2.876211889E-2;4.949481189E-1
1.272419167E1;1.184573174E0;-9.587372653E-3;3.311638236E-1
1.274085766E1;1.263269544E0;-8.828372508E-2;1.359542757E-1
1.275752365E1;1.180844784E0;-6.178529188E-2;-6.578002870E-2
1.277418964E1;8.934898973E-1;8.908267319E-2;-2.801643312E-1
1.279085563E1;4.022701681E-1;3.158506751E-1;-4.687159956E-1
1.280752162E1;-1.033305749E-1;5.636576414E-1;-4.480765164E-1
1.282418760E1;-4.368912578E-1;6.713824272E-1;-2.667153776E-1
1.284085360E1;-5.254412889E-1;4.695149362E-1;-2.663159184E-2
1.285751958E1;-2.984069884E-1;-5.392897129E-2;9.680583328E-2
1.287418557E1;1.019989923E-1;-6.592650414E-1;4.593949392E-2
1.289085156E1;5.254412889E-1;-1.221857429E0;-2.929475009E-1
1.290751755E1;7.627287507E-1;-1.647430182E0;-6.940192580E-1
1.292418354E1;8.068040609E-1;-1.947435141E0;-1.065130472E0
1.294084953E1;6.849645376E-1;-2.114148855E0;-1.339435816E0
1.295751552E1;5.203812718E-1;-2.195774794E0;-1.475257039E0
1.297418151E1;3.969438672E-1;-2.246374607E0;-1.544765472E0
1.299084750E1;3.058638275E-1;-2.257027388E0;-1.616004944E0
1.300751349E1;2.364885211E-1;-2.195242167E0;-1.691106081E0
1.302417948E1;1.920137703E-1;-2.050632477E0;-1.739841819E0
1.304084547E1;1.853558719E-1;-1.857553482E0;-1.753157616E0
1.305751146E1;1.664474458E-1;-1.618534923E0;-1.776460290E0
1.307417745E1;9.853688627E-2;-1.407080054E0;-1.801627159E0
1.309084344E1;-7.723161485E-3;-1.225452662E0;-1.841175079E0
1.310750943E1;-1.382179558E-1;-1.075516820E0;-1.881788254E0
1.312417542E1;-2.604569495E-1;-9.462204576E-1;-1.919605136E0
1.314084141E1;-3.528685868E-1;-8.486156464E-1;-1.935450912E0
1.315750740E1;-4.146538675E-1;-7.375619411E-1;-1.927195072E0
1.317417339E1;-5.134570599E-1;-5.723128915E-1;-1.871535063E0
1.319083938E1;-7.099981904E-1;-4.241080880E-1;-1.810016036E0
1.320750537E1;-9.430246353E-1;-3.368896246E-1;-1.686179161E0
1.322417136E1;-9.892304540E-1;-1.503353268E-1;-1.490303874E0
1.324083735E1;-9.796430469E-1;4.687159881E-2;-1.363936901E0
1.325750333E1;-8.699209094E-1;2.966759205E-1;-1.226917386E0
1.327416932E1;-6.801708341E-1;5.286371112E-1;-1.078978896E0
1.329083531E1;-4.683165252E-1;6.261087060E-1;-9.338367581E-1
1.330750130E1;-3.506048918E-1;5.712476373E-1;-7.964177132E-1
1.332416729E1;-2.680469751E-1;5.135902166E-1;-6.048034430E-1
1.334083328E1;-1.869537681E-1;4.581965208E-1;-3.253048956E-1
1.335749927E1;1.478053257E-2;4.607265294E-1;-3.195790946E-2
1.337416526E1;3.286338449E-1;4.423507154E-1;2.703106403E-1
1.339083125E1;6.414218545E-1;3.748396337E-1;5.562008023E-1
1.340749724E1;8.201198578E-1;2.749711871E-1;7.665903568E-1
1.342416323E1;7.506113648E-1;1.918806136E-1;9.167925119E-1
1.344082922E1;3.169159293E-1;1.629853398E-1;1.073785782E0
1.345749521E1;-5.856286883E-1;2.804306448E-1;1.314135909E0
1.347416120E1;-1.509079099E0;6.061350107E-1;1.616803885E0
1.349082719E1;-2.039180994E0;1.054078341E0;1.933986187E0
1.350749318E1;-2.040778875E0;1.459544301E0;2.246907234E0
1.352415917E1;-1.670599699E0;1.695233941E0;2.539455414E0
1.354082516E1;-1.202948928E0;1.650359750E0;2.759565353E0
1.355749115E1;-6.957502961E-1;1.304149032E0;2.860232830E0
1.357415714E1;-1.410142779E-1;8.267777562E-1;2.810831308E0
1.359082313E1;3.462106884E-1;2.339585274E-1;2.599909067E0
1.360748912E1;6.455497742E-1;-2.139848322E-1;2.261687756E0
1.362415510E1;5.743102431E-1;-1.510011256E-1;1.914411902E0
1.364082110E1;-6.751108170E-2;3.952127993E-1;1.621064901E0
1.365748708E1;-1.254481077E0;1.212536335E0;1.357145905E0
1.367415307E1;-2.484194756E0;2.059287786E0;1.163667321E0
1.369081906E1;-3.316565275E0;2.733200073E0;1.056475163E0
1.370748505E1;-3.590071678E0;3.048118830E0;1.033572078E0
1.372415104E1;-3.433744192E0;2.971153498E0;1.029310942E0
1.374081703E1;-2.956239700E0;2.543716431E0;1.002146721E0
1.375748302E1;-2.449041128E0;1.814676642E0;9.070720077E-1
1.377414901E1;-2.068475723E0;1.069125175E0;7.705850601E-1
1.379081500E1;-1.723197103E0;4.185154438E-1;6.748445034E-1
1.380748099E1;-1.391234279E0;-7.590003312E-2;6.275734305E-1
1.382414698E1;-1.100550532E0;-3.732417524E-1;6.747113466E-1
1.384081297E1;-8.711193204E-1;-4.404865205E-1;8.570045829E-1
1.385747896E1;-6.000097394E-1;-3.621896505E-1;1.072454214E0
1.387414495E1;-2.825611830E-1;-2.030658871E-1;1.185771585E0
1.389081094E1;2.982738242E-2;2.703106403E-2;1.126516342E0
1.390747693E1;2.229064107E-1;2.420811653E-1;9.213199019E-1
1.392414292E1;3.237069845E-1;3.386206925E-1;7.118624449E-1
1.394080891E1;4.102596641E-1;3.025348783E-1;5.551354885E-1
1.395747490E1;5.877591968E-1;1.312937438E-1;4.651207328E-1
1.397414089E1;8.335688114E-1;-1.262337416E-1;3.711112142E-1
1.399080688E1;9.836378098E-1;-4.914860129E-1;2.454101145E-1
1.400747286E1;9.684578180E-1;-8.117309213E-1;1.412805915E-1
1.402413886E1;9.042756557E-1;-9.341030717E-1;4.767054692E-2
1.404080484E1;8.546077609E-1;-8.274435401E-1;-7.789740711E-2
1.405747083E1;7.627287507E-1;-5.850960612E-1;-2.362222075E-1
1.407413682E1;6.415550113E-1;-3.113232851E-1;-3.117227852E-1
1.409080281E1;5.966808200E-1;-1.845569313E-1;-3.063964546E-1
1.410746880E1;7.167892456E-1;-3.262369931E-1;-3.173153996E-1
1.412413479E1;1.102681041E0;-7.037398219E-1;-4.127896726E-1
1.414080078E1;1.649960279E0;-1.159539461E0;-6.074665785E-1
1.415746677E1;2.170741081E0;-1.594965935E0;-9.546093941E-1
1.417413276E1;2.456098557E0;-1.942641377E0;-1.413338542E0
1.419079875E1;2.466751099E0;-2.190448284E0;-1.833851337E0
1.420746474E1;2.269677401E0;-2.342381477E0;-2.116146326E0
1.422413073E1;1.971137166E0;-2.424273729E0;-2.266215324E0
1.424079672E1;1.706951857E0;-2.461424828E0;-2.353833199E0
1.425746271E1;1.558880210E0;-2.436524153E0;-2.418414831E0
1.427412870E1;1.488972306E0;-2.380997419E0;-2.447176933E0
1.429079469E1;1.423591733E0;-2.269011497E0;-2.431863785E0
1.430746068E1;1.320527434E0;-2.122005224E0;-2.385125399E0
1.432412667E1;1.194293737E0;-1.925863504E0;-2.319078922E0
1.434079266E1;1.069125175E0;-1.722797632E0;-2.237319946E0
1.435745865E1;9.520793557E-1;-1.574725986E0;-2.154895306E0
1.437412464E1;8.391614556E-1;-1.487374306E0;-2.109621525E0
1.439079063E1;7.681882381E-1;-1.450223327E0;-2.107624054E0
1.440745662E1;7.647261620E-1;-1.470729589E0;-2.102031469E0
1.442412260E1;7.052045465E-1;-1.411074877E0;-2.026797295E0
1.444078860E1;4.515386224E-1;-1.296292663E0;-1.931589246E0
1.445745458E1;-2.343579940E-2;-1.187236309E0;-1.881921411E0
1.447412057E1;-4.446144104E-1;-9.704551697E-1;-1.740374446E0
1.449078656E1;-7.020087242E-1;-6.807034612E-1;-1.691905022E0
1.450745255E1;-7.946866751E-1;-3.829622865E-1;-1.693769217E0
1.452411854E1;-7.743135095E-1;-1.744369231E-2;-1.630918622E0
1.454078453E1;-7.450187802E-1;2.814959288E-1;-1.532781243E0
1.455745052E1;-7.323687673E-1;4.499407411E-1;-1.458079576E0
1.457411651E1;-6.175866127E-1;5.174518228E-1;-1.354083300E0
1.459078250E1;-4.344944060E-1;5.141228437E-1;-1.191231012E0
1.460744849E1;-2.141179889E-1;4.697812796E-1;-9.921599030E-1
1.462411448E1;7.376950979E-2;5.186502337E-1;-7.395592928E-1
1.464078047E1;3.039996028E-1;6.004092097E-1;-3.713775277E-1
1.465744646E1;3.703122735E-1;6.950845122E-1;1.078579426E-1
1.467411245E1;3.462106884E-1;8.028092980E-1;6.803039908E-1
1.469077844E1;3.262369931E-1;8.884298801E-1;1.261804819E0
1.470744443E1;3.418164849E-1;8.940225244E-1;1.703756094E0
1.472411042E1;2.226400971E-1;8.020103574E-1;1.962215662E0
1.474077641E1;-9.054741263E-2;6.890923977E-1;2.158357382E0
1.475744240E1;-5.159870982E-1;5.830987096E-1;2.322807312E0
1.477410839E1;-8.233156204E-1;6.323671341E-1;2.575674295E0
1.479077438E1;-9.006804228E-1;7.966840267E-1;2.898449183E0
1.480744036E1;-7.791072130E-1;9.665936232E-1;3.173953056E0
1.482410636E1;-5.639239550E-1;1.077780485E0;3.324155092E0
1.484077235E1;-3.916175365E-1;1.089897871E0;3.321891546E0
1.485743833E1;-2.664490640E-1;1.007606268E0;3.168094158E0
1.487410432E1;-1.757684946E-1;8.395609260E-1;2.901778221E0
1.489077031E1;-9.480846673E-2;6.028060913E-1;2.582199097E0
1.490743630E1;-5.313002318E-2;4.093275666E-1;2.266481638E0
1.492410229E1;-7.363634557E-2;3.279680312E-1;1.959019780E0
1.494076828E1;-2.539322078E-1;4.203796685E-1;1.674194932E0
1.495743427E1;-6.384924054E-1;5.974797606E-1;1.464604378E0
1.497410026E1;-1.109738350E0;8.435556293E-1;1.320793748E0
1.499076625E1;-1.559279680E0;1.160604715E0;1.261804819E0
1.500743224E1;-1.928926110E0;1.512940645E0;1.302817464E0
1.502409823E1;-2.137984037E0;1.758217692E0;1.366333723E0
1.504076422E1;-2.166213512E0;1.878592372E0;1.408145428E0
1.505743021E1;-2.048368931E0;1.864477634E0;1.427985907E0
1.507409620E1;-1.777791858E0;1.746233463E0;1.453152776E0
1.509076219E1;-1.461541772E0;1.510810137E0;1.519465446E0
1.510742818E1;-1.102814198E0;1.249287963E0;1.663941860E0
1.512409417E1;-6.342313290E-1;1.041028857E0;1.823331833E0
1.514076016E1;-1.114532053E-1;8.510124683E-1;1.803358197E0
1.515742615E1;2.870885432E-1;6.568682194E-1;1.516935468E0
1.517409214E1;4.703139067E-1;4.655202031E-1;1.149818897E0
1.519075813E1;4.953475893E-1;4.123901725E-1;9.022783041E-1
1.520742412E1;4.785696864E-1;4.470112622E-1;7.484808564E-1
1.522409010E1;5.211802125E-1;4.929507375E-1;6.504766345E-1
1.524075610E1;4.748412669E-1;4.716454744E-1;5.482112765E-1
1.525742208E1;3.209106624E-1;3.788343966E-1;4.301002026E-1
1.527408807E1;1.524658650E-1;1.434111148E-1;3.339601457E-1
1.529075406E1;1.966743022E-1;-2.664490640E-1;2.326269448E-1
1.530742005E1;5.117260218E-1;-6.544713378E-1;9.400951862E-2
1.532408604E1;9.382309318E-1;-7.659245729E-1;-5.605949834E-2
1.534075203E1;1.059005260E0;-6.422207952E-1;-2.111885101E-1
1.535741802E1;7.832350731E-1;-3.781685829E-1;-3.904191256E-1
1.537408401E1;4.086617529E-1;-1.225053221E-1;-5.201149583E-1
1.539075000E1;3.231743574E-1;-1.683116555E-1;-6.189181805E-1
1.540741599E1;5.651223660E-1;-5.579318404E-1;-6.957502961E-1
1.542408198E1;9.964209795E-1;-1.232643247E0;-7.464835048E-1
1.544074797E1;1.338104248E0;-1.886581898E0;-9.399620295E-1
1.545741396E1;1.453685403E0;-2.328000546E0;-1.269927382E0
1.547407995E1;1.280313730E0;-2.505633354E0;-1.625991821E0
1.549074594E1;1.002812505E0;-2.473941565E0;-1.912680864E0
1.550741193E1;7.504782081E-1;-2.373141050E0;-2.131459475E0
1.552407792E1;5.819002390E-1;-2.342647791E0;-2.299904108E0
1.554074391E1;4.897549450E-1;-2.364619017E0;-2.407096386E0
1.555740990E1;4.885565341E-1;-2.416683674E0;-2.485925913E0
1.557407589E1;5.455481410E-1;-2.435458899E0;-2.546379566E0
1.559074188E1;6.234455705E-1;-2.431863785E0;-2.604037046E0
1.560740786E1;6.640587449E-1;-2.357827902E0;-2.651707411E0
1.562407386E1;6.426202655E-1;-2.203764200E0;-2.679271221E0
1.564073984E1;5.600623488E-1;-1.991776705E0;-2.688725471E0
1.565740583E1;4.332959950E-1;-1.789509773E0;-2.704304934E0
1.567407182E1;2.685796022E-1;-1.603088617E0;-2.686994314E0
1.569073781E1;1.026647836E-1;-1.462074399E0;-2.650509119E0
1.570740380E1;-6.351634115E-2;-1.305214286E0;-2.658898115E0
1.572406979E1;-2.591253817E-1;-1.073386312E0;-2.614290237E0
1.574073578E1;-4.050664902E-1;-7.793735266E-1;-2.386456966E0
1.575740177E1;-4.691154659E-1;-6.000097394E-1;-2.207359314E0
1.577406776E1;-4.837628603E-1;-4.605933726E-1;-2.043575048E0
1.579073375E1;-4.909533858E-1;-3.516701460E-1;-1.908952475E0
1.580739974E1;-4.225101769E-1;-2.767022252E-1;-1.813211918E0
1.582406573E1;-2.631201148E-1;-2.428801060E-1;-1.730787158E0
1.584073172E1;-1.850895584E-2;-1.640505940E-1;-1.548094392E0
1.585739771E1;2.277000993E-1;-1.237037405E-1;-1.257410526E0
1.587406370E1;4.279696643E-1;-1.398158520E-1;-9.299751520E-1
1.589072969E1;5.462139249E-1;-1.454084814E-1;-6.346307993E-1
1.590739568E1;6.376934648E-1;-1.071921512E-1;-3.657849133E-1
1.592406167E1;7.249119282E-1;-9.853689000E-3;-5.872265995E-2
1.594072766E1;8.215845823E-1;1.541969180E-1;3.572627902E-1
1.595739365E1;9.767135978E-1;3.844270110E-1;8.351666927E-1
1.597405964E1;1.301885366E0;7.073350549E-1;1.300154328E0
1.599072563E1;1.677923441E0;1.089098930E0;1.755953908E0
1.600739162E1;1.610412359E0;1.411208034E0;2.135853529E0
1.602405761E1;8.508793116E-1;1.630252838E0;2.425072670E0
1.604072360E1;-2.743053734E-1;1.731985569E0;2.663958073E0
1.605738958E1;-1.151017308E0;1.692437649E0;2.913762331E0
1.607405557E1;-1.453818560E0;1.631184936E0;3.110836029E0
1.609072156E1;-1.299888015E0;1.609480262E0;3.190597773E0
1.610738755E1;-1.007073641E0;1.610412359E0;3.212169409E0
1.612405354E1;-7.362303138E-1;1.591770172E0;3.132008314E0
1.614071953E1;-5.467465520E-1;1.455682755E0;2.934535027E0
1.615738552E1;-3.655185997E-1;1.331313252E0;2.675143242E0
1.617405151E1;-2.087916732E-1;1.211071610E0;2.377801657E0
1.619071750E1;-1.711079776E-1;1.109338880E0;2.015345573E0
1.620738349E1;-3.395527899E-1;1.034237862E0;1.646231771E0
1.622404948E1;-6.960166097E-1;1.021587849E0;1.303483248E0
1.624071547E1;-1.094957829E0;1.099085808E0;1.029177785E0
1.625738146E1;-1.410675406E0;1.265533209E0;8.866988420E-1
1.627404745E1;-1.594033837E0;1.488839149E0;8.629966974E-1
1.629071344E1;-1.601091266E0;1.663009644E0;9.029440880E-1
1.630737943E1;-1.468599081E0;1.777791858E0;9.436904192E-1
1.632404542E1;-1.236904263E0;1.821600795E0;9.629983306E-1
1.634071141E1;-9.619330764E-1;1.763011336E0;9.902957082E-1
1.635737740E1;-7.567366362E-1;1.614939690E0;1.033305764E0
1.637404339E1;-6.464818716E-1;1.399623275E0;1.101615787E0
1.639070938E1;-6.494113207E-1;1.097754240E0;1.203747869E0
1.640737536E1;-6.165213585E-1;7.777756453E-1;1.318796396E0
1.642404136E1;-4.800344408E-1;4.464786351E-1;1.409476995E0
1.644070734E1;-3.135869801E-1;1.821600795E-1;1.395095944E0
1.645737333E1;-2.046637833E-1;-2.223737910E-2;1.299222112E0
1.647403932E1;-1.006674170E-1;-1.221058443E-1;1.217063665E0
1.649070531E1;2.143843099E-2;-7.896266878E-2;1.186037898E0
1.650737130E1;1.990711391E-1;4.474107176E-2;1.162602067E0
1.652403729E1;4.362254739E-1;2.127864063E-1;1.108939409E0
1.654070328E1;6.520745158E-1;3.383543491E-1;9.873662591E-1
1.655736927E1;7.772429585E-1;3.692470193E-1;8.146603703E-1
1.657403526E1;8.078693151E-1;3.368896246E-1;5.860281587E-1
1.659070125E1;7.603319287E-1;2.503369451E-1;3.480748832E-1
1.660736724E1;6.318345070E-1;1.840242893E-1;1.326253265E-1
1.662403323E1;4.342280924E-1;1.964079887E-1;-4.127896577E-2
1.664069922E1;2.134522051E-1;2.087916732E-1;-2.117211521E-1
1.665736521E1;1.877527125E-2;1.307611167E-1;-3.490070105E-1
1.667403120E1;-1.731053367E-2;-2.596580051E-2;-3.121222556E-1
1.669069719E1;1.382179558E-1;-3.704454303E-1;-1.776327193E-1
1.670736318E1;4.962796867E-1;-9.586040974E-1;-1.396826953E-1
1.672402917E1;9.571393728E-1;-1.678988695E0;-2.976080179E-1
1.674069516E1;1.307611108E0;-2.295776367E0;-6.620613337E-1
1.675736115E1;1.415469050E0;-2.714691162E0;-1.140631080E0
1.677402714E1;1.263003230E0;-2.922950268E0;-1.604020715E0
1.679069313E1;8.941556811E-1;-2.948782921E0;-1.967675090E0
1.680735912E1;4.795017838E-1;-2.876211882E0;-2.244643688E0
1.682402510E1;1.296958476E-1;-2.737993956E0;-2.425072670E0
1.684069110E1;-7.310371846E-2;-2.560228109E0;-2.513356447E0
1.685735708E1;-1.571263820E-1;-2.347974300E0;-2.565953732E0
1.687402307E1;-1.624527127E-1;-2.093908787E0;-2.612559080E0
1.689068906E1;-1.299621612E-1;-1.810681820E0;-2.654503822E0
1.690735505E1;-1.219726875E-1;-1.534645438E0;-2.679004908E0
1.692402104E1;-1.466069072E-1;-1.274587989E0;-2.676874399E0
1.694068703E1;-1.700427085E-1;-1.064331532E0;-2.654104471E0
1.695735302E1;-1.922800839E-1;-9.571393728E-1;-2.650509119E0
1.697401901E1;-2.177132517E-1;-9.215862155E-1;-2.672080755E0
1.699068500E1;-2.733732760E-1;-9.628651738E-1;-2.726142883E0
1.700735099E1;-3.490070105E-1;-9.949562550E-1;-2.754638672E0
1.702401698E1;-4.344944060E-1;-9.942904711E-1;-2.779272795E0
1.704068297E1;-5.099949837E-1;-8.584693074E-1;-2.672347069E0
1.705734896E1;-5.339633822E-1;-6.442182064E-1;-2.380331516E0
1.707401495E1;-5.255744457E-1;-5.221123695E-1;-2.140114546E0
1.709068094E1;-4.740423262E-1;-3.977428079E-1;-1.951296687E0
1.710734693E1;-3.412838280E-1;-2.431464195E-1;-1.799496651E0
1.712401292E1;-1.845569313E-1;-1.051947847E-1;-1.678589225E0
1.714067891E1;-3.954791278E-2;7.696529478E-2;-1.539838552E0
1.715734490E1;1.332911104E-1;2.733732760E-1;-1.310673714E0
1.717401089E1;1.731053442E-1;3.944138587E-1;-1.015063047E0
1.719067688E1;-4.966791719E-2;4.307659864E-1;-6.581997871E-1
1.720734286E1;-3.861580789E-1;4.906870723E-1;-2.631201148E-1
1.722400886E1;-6.396908164E-1;5.892239809E-1;1.138500497E-1
1.724067484E1;-6.587324142E-1;6.896250248E-1;4.463454783E-1
1.725734083E1;-4.869586527E-1;7.153245211E-1;8.186551332E-1
1.727400682E1;-2.376869470E-1;7.041392922E-1;1.241431594E0
1.729067281E1;-7.217161357E-2;6.735129356E-1;1.664075017E0
1.730733880E1;-1.219726875E-1;6.161218882E-1;2.069807291E0
1.732400479E1;-3.075948656E-1;5.619265437E-1;2.424407005E0
1.734067078E1;-4.607265294E-1;5.592634082E-1;2.754771709E0
1.735733677E1;-4.592617750E-1;6.202497482E-1;3.085802555E0
1.737400276E1;-3.018690944E-1;7.243793011E-1;3.366099834E0
1.739066875E1;-7.989477366E-2;8.540751338E-1;3.532414198E0
1.740733474E1;6.205160543E-2;9.857683182E-1;3.545463800E0
1.742400073E1;8.974846452E-2;1.043026209E0;3.432279348E0
1.744066672E1;8.122635633E-2;9.956220388E-1;3.205378294E0
1.745733271E1;9.001477808E-2;8.783098459E-1;2.923216581E0
1.747399870E1;7.470161468E-2;7.374287844E-1;2.596047401E0
1.749066469E1;-5.060002208E-3;5.765739679E-1;2.227865696E0
1.750733068E1;-1.290300637E-1;4.866923392E-1;1.848898172E0
1.752399667E1;-2.416816950E-1;5.075981021E-1;1.486042738E0
1.754066266E1;-3.235738277E-1;6.950845122E-1;1.196956873E0
1.755732865E1;-4.157191217E-1;1.032906294E0;1.048219442E0
1.757399464E1;-6.574008465E-1;1.390967965E0;9.829720259E-1
1.759066063E1;-9.801757336E-1;1.762611866E0;9.765804410E-1
1.760732661E1;-1.258076310E0;2.071671486E0;1.007872581E0
1.762399260E1;-1.418797970E0;2.267546892E0;1.040496230E0
1.764065860E1;-1.441834331E0;2.338120461E0;1.082440972E0
1.765732458E1;-1.376586914E0;2.226267815E0;1.205079436E0
1.767399057E1;-1.257144213E0;1.949166179E0;1.378850579E0
1.769065656E1;-1.042227268E0;1.547561765E0;1.545298100E0
1.770732255E1;-6.921550632E-1;1.105477333E0;1.659547567E0
1.772398854E1;-3.396859467E-1;7.649924755E-1;1.706552386E0
1.774065453E1;-8.349003643E-2;5.897566080E-1;1.691372395E0
1.775732052E1;6.085318699E-2;5.573992133E-1;1.659414411E0
1.777398651E1;1.319595277E-1;6.235787272E-1;1.647829652E0
1.779065250E1;2.051964104E-1;7.165229321E-1;1.656351805E0
1.780731849E1;2.605901062E-1;6.832334399E-1;1.580851197E0
1.782398448E1;3.211769760E-1;5.102612972E-1;1.429983258E0
1.784065047E1;3.672496378E-1;2.131858915E-1;1.243695259E0
1.785731646E1;3.973433375E-1;-1.572595388E-1;9.938910007E-1
1.787398245E1;4.347607195E-1;-4.219775498E-1;7.416898012E-1
1.789064844E1;4.591286182E-1;-5.542033911E-1;5.181176066E-1
1.790731443E1;3.929491341E-1;-5.519397259E-1;2.352901101E-1
1.792398042E1;2.195774615E-1;-5.366265774E-1;7.456845604E-3
1.794064641E1;1.268995255E-1;-6.368945241E-1;-8.934898674E-2
1.795731240E1;2.258358896E-1;-9.483509660E-1;-1.320926845E-1
1.797397839E1;5.129244328E-1;-1.510277510E0;-2.420811653E-1
1.799064438E1;9.247819781E-1;-2.187252522E0;-4.878907502E-1
1.800731037E1;1.227050543E0;-2.743053913E0;-8.700540662E-1
1.802397636E1;1.318663239E0;-3.094857216E0;-1.325454235E0
1.804064235E1;1.157142639E0;-3.235205650E0;-1.793637633E0
1.805730833E1;8.173235059E-1;-3.216030836E0;-2.181659937E0
1.807397432E1;4.945486486E-1;-3.115896225E0;-2.463688374E0
1.809064031E1;2.868222296E-1;-3.008570910E0;-2.669151306E0
1.810730630E1;2.071937770E-1;-2.872083902E0;-2.807502270E0
1.812397229E1;1.893506050E-1;-2.716156006E0;-2.904308081E0
1.814063828E1;1.821600795E-1;-2.516951561E0;-2.928542852E0
1.815730427E1;1.078579426E-1;-2.293113232E0;-2.824812889E0
1.817397026E1;-5.073318258E-2;-2.070339918E0;-2.633997440E0
1.819063625E1;-2.537990510E-1;-1.934252501E0;-2.406563759E0
1.820730224E1;-4.688491523E-1;-1.829856634E0;-2.230662107E0
1.822396823E1;-6.580666304E-1;-1.737311840E0;-2.129728317E0
1.824063422E1;-7.872298360E-1;-1.679121852E0;-2.046371460E0
1.825730021E1;-8.657930493E-1;-1.620399117E0;-2.018541336E0
1.827396620E1;-9.357009530E-1;-1.537308574E0;-2.091378927E0
1.829063219E1;-9.146620035E-1;-1.392832160E0;-2.042110443E0
1.830729818E1;-8.825709224E-1;-1.278050065E0;-1.964479327E0
1.832396417E1;-8.049398661E-1;-1.140631080E0;-1.888179779E0
1.834063016E1;-6.824344993E-1;-9.191893935E-1;-1.772066116E0
1.835729615E1;-5.890907645E-1;-6.094639897E-1;-1.634247541E0
1.837396214E1;-6.507429481E-1;-3.506048918E-1;-1.540637493E0
1.839062813E1;-7.966840267E-1;-1.284974217E-1;-1.520663857E0
1.840729412E1;-8.865656853E-1;3.182475269E-2;-1.539439082E0
1.842396010E1;-7.677887678E-1;1.310274303E-1;-1.540637493E0
1.844062610E1;-4.515386224E-1;2.561959028E-1;-1.450489640E0
1.845729208E1;-1.810948178E-2;3.210438192E-1;-1.221724272E0
1.847395807E1;3.753722608E-1;3.219759464E-1;-9.289098978E-1
1.849062406E1;5.853623748E-1;2.972085476E-1;-6.399571300E-1
1.850729005E1;5.716471076E-1;3.382211924E-1;-4.748412669E-1
1.852395604E1;4.515386224E-1;4.507396817E-1;-5.747097135E-1
1.854062203E1;4.374238849E-1;7.265098095E-1;-1.046754718E0
1.855728802E1;7.386271954E-1;1.255546331E0;-1.617602825E0
1.857395401E1;8.712524772E-1;1.745035052E0;-1.454218030E0
1.859062000E1;1.521995366E-1;1.986450434E0;-1.874863952E-1
1.860728599E1;-1.098952651E0;1.919205666E0;1.564206481E0
1.862395198E1;-1.800029278E0;1.598561287E0;2.601773262E0
1.864061797E1;-1.740507603E0;1.225319505E0;2.785131693E0
1.865728396E1;-1.276185870E0;1.026780963E0;2.626940250E0
1.867394995E1;-9.711209536E-1;1.088433146E0;2.616553783E0
1.869061594E1;-8.233156204E-1;1.218128920E0;2.779539108E0
1.870728193E1;-6.146571040E-1;1.273655891E0;2.927477598E0
1.872394792E1;-2.612559199E-1;1.181111097E0;2.933869123E0
1.874061391E1;6.484792382E-2;9.721862078E-1;2.810032368E0
1.875727990E1;2.263685167E-1;7.115961313E-1;2.621347427E0
1.877394589E1;1.272990108E-1;5.046686530E-1;2.460492611E0
1.879061188E1;-1.592569202E-1;4.034686089E-1;2.308160067E0
1.880727787E1;-5.177181363E-1;4.717786312E-1;2.160620928E0
1.882394386E1;-7.988145947E-1;5.857618451E-1;2.021870375E0
1.884060985E1;-9.719198942E-1;7.202513814E-1;1.889511347E0
1.885727583E1;-1.015995145E0;8.659262061E-1;1.768603921E0
1.887394182E1;-9.663273096E-1;1.019856811E0;1.689108610E0
1.889060781E1;-9.463536143E-1;1.153414249E0;1.651158690E0
1.890727380E1;-9.727188349E-1;1.257543683E0;1.637177110E0
1.892393979E1;-1.010668874E0;1.321060061E0;1.627456546E0
1.894060578E1;-9.902957082E-1;1.296159506E0;1.597629189E0
1.895727177E1;-8.928241134E-1;1.149818897E0;1.540504336E0
1.897393776E1;-7.105308771E-1;9.510141015E-1;1.486974835E0
1.899060375E1;-5.310339332E-1;7.435539961E-1;1.461674929E0
1.900726974E1;-4.098601937E-1;5.930855274E-1;1.434777021E0
1.902393573E1;-3.018690944E-1;5.753754973E-1;1.365667939E0
1.904060172E1;-1.600558609E-1;6.251766086E-1;1.282177925E0
1.905726771E1;5.153212696E-2;7.374287844E-1;1.197223186E0
1.907393370E1;2.701774836E-1;7.803056240E-1;1.080310464E0
1.909059969E1;4.312986135E-1;7.471492887E-1;9.341030717E-1
1.910726568E1;4.957470596E-1;5.784381628E-1;7.864308953E-1
1.912393167E1;5.054675937E-1;3.286338449E-1;6.355628967E-1
1.914059766E1;5.611276031E-1;6.990792602E-2;5.199818015E-1
1.915726365E1;6.540718675E-1;-1.836248189E-1;4.085285962E-1
1.917392964E1;6.896250248E-1;-3.382211924E-1;1.960085034E-1
1.919059563E1;5.492765903E-1;-3.673827946E-1;-1.225053221E-1
1.920726162E1;2.211753577E-1;-2.671148479E-1;-4.380896688E-1
1.922392760E1;-6.364950538E-2;-1.018658355E-1;-5.073317885E-1
1.924059360E1;-8.801741153E-2;-1.415469050E-1;-4.255728126E-1
1.925725958E1;1.181111038E-1;-4.619249403E-1;-3.796333373E-1
1.927392557E1;5.815007687E-1;-1.023718357E0;-4.830970466E-1
1.929059156E1;1.147288918E0;-1.637709737E0;-7.098650336E-1
1.930725755E1;1.580851197E0;-2.143709898E0;-1.036501527E0
1.932392354E1;1.668735504E0;-2.471811056E0;-1.456215382E0
1.934058953E1;1.577122808E0;-2.668086052E0;-1.894171953E0
1.935725552E1;1.393231630E0;-2.786596537E0;-2.251567841E0
1.937392151E1;1.163134694E0;-2.820019245E0;-2.511092663E0
1.939058750E1;9.146620035E-1;-2.776077032E0;-2.698046446E0
1.940725349E1;6.526071429E-1;-2.640921831E0;-2.792056084E0
1.942391948E1;4.183822870E-1;-2.414020538E0;-2.800977468E0
1.944058547E1;2.464753687E-1;-2.133456707E0;-2.762761354E0
1.945725146E1;1.234374270E-1;-1.868206143E0;-2.705103874E0
1.947391745E1;2.263685316E-2;-1.644367576E0;-2.652772665E0
1.949058344E1;-6.817687303E-2;-1.449291229E0;-2.596846342E0
1.950724943E1;-1.510011256E-1;-1.318796396E0;-2.539588451E0
1.952391542E1;-2.300969511E-1;-1.240100026E0;-2.502171040E0
1.954058141E1;-3.261038363E-1;-1.200019479E0;-2.477270603E0
1.955724740E1;-4.103928208E-1;-1.178980589E0;-2.434926271E0
1.957391339E1;-4.850944281E-1;-1.121189952E0;-2.387655258E0
1.959057938E1;-5.363602638E-1;-9.699225426E-1;-2.229596853E0
1.960724536E1;-5.616602302E-1;-7.791072130E-1;-2.002296209E0
1.962391136E1;-5.937513113E-1;-6.492781639E-1;-1.896302462E0
1.964057734E1;-6.243776679E-1;-5.242428780E-1;-1.824263930E0
1.965724333E1;-6.081323624E-1;-3.424822688E-1;-1.774862409E0
1.967390932E1;-5.298355222E-1;-1.394163817E-1;-1.724661827E0
1.969057531E1;-3.870901763E-1;5.193160102E-2;-1.663941860E0
1.970724130E1;-2.632532716E-1;1.442100704E-1;-1.569666028E0
1.972390729E1;-1.402153224E-1;1.324921697E-1;-1.403351665E0
1.974057328E1;-2.130527236E-2;8.215846121E-2;-1.178980589E0
1.975723927E1;9.520793706E-2;5.033370852E-2;-9.014793634E-1
1.977390526E1;2.703106403E-1;2.037316747E-2;-5.922865868E-1
1.979057125E1;5.383576155E-1;1.491369121E-2;-2.789659202E-1
1.980723724E1;8.881635666E-1;6.444845349E-2;5.033370852E-2
1.982390323E1;1.291499019E0;1.700427085E-1;4.147870243E-1
1.984056922E1;1.631451249E0;2.769685388E-1;7.813708782E-1
1.985723521E1;1.649960279E0;3.255712092E-1;1.091229439E0
1.987390120E1;1.257943153E0;3.234406710E-1;1.368198037E0
1.989056719E1;8.066709042E-1;3.523359597E-1;1.590838075E0
1.990723318E1;6.182523966E-1;4.772381186E-1;1.750627637E0
1.992389917E1;6.098634601E-1;6.962829232E-1;2.023201942E0
1.994056516E1;4.977444410E-1;9.510141015E-1;2.377135754E0
1.995723115E1;2.557964325E-1;1.190831542E0;2.695116997E0
1.997389714E1;-9.347688407E-2;1.425056458E0;2.901245594E0
1.999056313E1;-4.633896947E-1;1.587375998E0;2.932404518E0
2.000722912E1;-7.502118945E-1;1.656618118E0;2.868222237E0
2.002389510E1;-9.536772966E-1;1.715074420E0;2.836663961E0
2.004056110E1;-1.114132643E0;1.828658223E0;2.842522860E0
2.005722708E1;-1.114665270E0;1.851960897E0;2.841058016E0
2.007389307E1;-9.199883342E-1;1.680053949E0;2.787262201E0
2.009055906E1;-6.218476295E-1;1.389370084E0;2.692054272E0
2.010722505E1;-2.990727723E-1;1.075516820E0;2.581932783E0
2.012389104E1;-3.542001545E-2;7.788408995E-1;2.431730509E0
2.014055703E1;1.288969070E-1;5.423523784E-1;2.281528473E0
2.015722302E1;1.957421899E-1;3.663175404E-1;2.115880013E0
2.017388901E1;2.127864063E-1;2.267680019E-1;1.933986187E0
2.019055500E1;2.283658981E-1;6.564687192E-2;1.750760794E0
2.020722099E1;2.379532605E-1;-7.057371736E-2;1.652223945E0
2.022388698E1;2.169143111E-1;-1.081242561E-1;1.622662783E0
2.024055297E1;1.709748209E-1;-7.696529478E-2;1.546762824E0
2.025721896E1;1.042626798E-1;-9.054740891E-3;1.372192740E0
2.027388495E1;2.063948289E-2;9.214530140E-2;1.160338402E0
2.029055094E1;-8.282424510E-2;2.607232630E-1;9.767135978E-1
2.030721693E1;-1.551290154E-1;4.767054915E-1;7.870966792E-1
2.032388292E1;-1.585911214E-1;7.044056058E-1;5.860281587E-1
2.034054891E1;-5.566002429E-2;8.957535625E-1;3.913512230E-1
2.035721490E1;1.166463718E-1;1.050483108E0;2.801643312E-1
2.037388089E1;2.390185297E-1;1.218128920E0;2.251701057E-1
2.039054688E1;1.914811432E-1;1.361806393E0;2.312953621E-1
2.040721286E1;-7.749792933E-2;1.384975910E0;2.292979956E-1
2.042387886E1;-3.145190775E-1;1.284042120E0;2.383527458E-1
2.044054484E1;-3.538006842E-1;1.074584723E0;2.163816839E-1
2.045721083E1;-2.253032625E-1;8.103992939E-1;1.367532164E-1
2.047387682E1;-9.720530361E-3;5.151881576E-1;2.889527567E-2
2.049054281E1;1.804290265E-1;2.953443527E-1;-8.641951531E-2
2.050720880E1;3.502054214E-1;8.415582776E-2;-2.038648278E-1
2.052387479E1;5.287702680E-1;-1.932121962E-1;-3.191796243E-1
2.054054078E1;7.918903828E-1;-5.065328479E-1;-3.668501675E-1
2.055720677E1;1.060336828E0;-8.190546036E-1;-3.456780612E-1
2.057387276E1;1.183507919E0;-1.146223664E0;-3.428817391E-1
2.059053875E1;1.086036325E0;-1.503220201E0;-5.620597005E-1
2.060720474E1;7.803056240E-1;-1.751959205E0;-9.704551697E-1
2.062387073E1;3.601922691E-1;-1.801893473E0;-1.438505411E0
2.064053672E1;-8.455529809E-2;-1.695100784E0;-1.848099232E0
2.065720271E1;-4.820317924E-1;-1.546496511E0;-2.167545080E0
2.067386870E1;-7.736477256E-1;-1.479917526E0;-2.393247843E0
2.069053469E1;-8.920251131E-1;-1.509478569E0;-2.550773859E0
2.070720068E1;-8.716519475E-1;-1.551689625E0;-2.610827923E0
2.072386667E1;-7.230476737E-1;-1.595631719E0;-2.553170681E0
2.074053266E1;-4.818986356E-1;-1.647696495E0;-2.384592772E0
2.075719865E1;-1.721732318E-1;-1.688309669E0;-2.071804523E0
2.077386464E1;1.524658650E-1;-1.772998214E0;-1.678456068E0
2.079053063E1;3.608580530E-1;-1.846101880E0;-1.430782199E0
2.080719662E1;4.282359779E-1;-1.884984016E0;-1.354083300E0
2.082386261E1;3.673827946E-1;-1.872600317E0;-1.400422215E0
2.084052860E1;2.258358896E-1;-1.811347723E0;-1.486442208E0
2.085719458E1;3.888212144E-2;-1.713476539E0;-1.560211778E0
2.087386057E1;-1.792306006E-1;-1.596830249E0;-1.619600177E0
2.089052656E1;-4.032022953E-1;-1.472726941E0;-1.694834471E0
2.090719255E1;-5.724460483E-1;-1.296958447E0;-1.715074420E0
2.092385854E1;-6.463487148E-1;-1.099218965E0;-1.621331215E0
2.094052453E1;-6.605966091E-1;-8.840356469E-1;-1.568866968E0
2.095719052E1;-6.717818975E-1;-6.772413850E-1;-1.551689625E0
2.097385651E1;-6.857634783E-1;-4.632565379E-1;-1.538373828E0
2.099052250E1;-6.243776679E-1;-3.174485564E-1;-1.504152298E0
2.100718849E1;-4.792354703E-1;-1.571263820E-1;-1.406147957E0
2.102385448E1;-2.681801319E-1;6.125265732E-3;-1.236238480E0
2.104052047E1;-7.310371846E-2;1.406148076E-1;-9.989509583E-1
2.105718646E1;4.447475821E-2;2.504701018E-1;-7.319692969E-1
2.107385245E1;1.362205893E-1;2.792322338E-1;-4.352933466E-1
2.109051844E1;3.664506972E-1;2.004027218E-1;-1.774995476E-1
2.110718443E1;7.974829674E-1;4.873581231E-2;3.209106624E-2
2.112385042E1;1.302950621E0;-1.504684836E-1;2.287653685E-1
2.114051641E1;1.836248159E0;-2.229064107E-1;4.222438633E-1
2.115718240E1;2.237719536E0;-1.687111259E-1;6.732466221E-1
2.117384839E1;2.281395197E0;-2.743053809E-2;9.962878227E-1
2.119051438E1;1.698163390E0;2.423474789E-1;1.310540557E0
2.120718036E1;8.030756116E-1;6.392913461E-1;1.554219604E0
2.122384636E1;-8.788424730E-2;1.049551010E0;1.679920793E0
2.124051235E1;-6.633929610E-1;1.427985907E0;1.753690243E0
2.125717833E1;-8.736493587E-1;1.716938615E0;1.898033500E0
2.127384432E1;-7.329013944E-1;1.890310287E0;2.113482952E0
2.129051031E1;-3.331612051E-1;1.874065042E0;2.313619375E0
2.130717630E1;1.151816323E-1;1.780987620E0;2.387255907E0
2.132384229E1;5.307676196E-1;1.615605474E0;2.345177889E0
2.134050828E1;8.729835749E-1;1.425855398E0;2.193777323E0
2.135717427E1;1.040762544E0;1.225852132E0;2.020538807E0
2.137384026E1;9.222519994E-1;1.023318887E0;1.875396609E0
2.139050625E1;5.471460223E-1;9.293093681E-1;1.741439700E0
2.140717224E1;1.017326787E-1;9.805752039E-1;1.619733334E0
2.142383823E1;-3.033338189E-1;1.110004663E0;1.506016493E0
2.144050422E1;-5.572660565E-1;1.220392704E0;1.376586914E0
2.145717021E1;-6.443513632E-1;1.279647946E0;1.243961573E0
2.147383620E1;-6.414218545E-1;1.297491074E0;1.105344176E0
2.149050219E1;-5.625923872E-1;1.291765332E0;9.696562290E-1
2.150716818E1;-4.776375890E-1;1.276851654E0;8.510124683E-1
2.152383417E1;-4.203796685E-1;1.234507442E0;7.612640262E-1
2.154050016E1;-3.603254259E-1;1.147022605E0;7.215829492E-1
2.155716615E1;-3.001380265E-1;1.036900997E0;7.028076649E-1
2.157383214E1;-2.380864173E-1;8.656598926E-1;6.708498001E-1
2.159049813E1;-1.841574460E-1;6.853640079E-1;6.225134134E-1
2.160716412E1;-1.368863732E-1;6.034718752E-1;5.528718233E-1
2.162383010E1;-1.029310971E-1;6.739124060E-1;4.755070508E-1
2.164049610E1;-1.286305785E-1;7.779088020E-1;3.973433375E-1
2.165716208E1;-1.751027107E-1;8.607330322E-1;3.181143403E-1
2.167382807E1;-1.780321896E-1;8.820382953E-1;2.463422120E-1
2.169049406E1;-7.070687413E-2;8.424903750E-1;2.063948363E-1
2.170716005E1;9.720530361E-2;7.906919122E-1;2.193111479E-1
2.172382604E1;2.805638015E-1;6.952176690E-1;2.616553903E-1
2.174049203E1;4.274370372E-1;4.842954874E-1;2.607232630E-1
2.175715802E1;5.942839384E-1;2.166479975E-1;2.002695650E-1
2.177382401E1;7.823029757E-1;-6.578002870E-2;1.498026997E-1
2.179049000E1;9.315730333E-1;-2.587259114E-1;1.342232227E-1
2.180715599E1;9.491499066E-1;-3.973433375E-1;1.386174262E-1
2.182382198E1;8.492814302E-1;-4.544681013E-1;1.147821546E-1
2.184048797E1;6.768419147E-1;-4.287686050E-1;5.179844424E-2
2.185715396E1;4.816323221E-1;-3.671164811E-1;-5.073318258E-2
2.187381995E1;2.631201148E-1;-2.810964286E-1;-1.444763839E-1
2.189048594E1;1.074584723E-1;-2.082590461E-1;-1.319595277E-1
2.190715193E1;5.219791830E-2;-2.094574571E-1;-6.364950538E-2
2.192381792E1;9.187898785E-2;-3.668501675E-1;-3.222422674E-2
2.194048391E1;2.623211741E-1;-6.056023836E-1;-5.925529078E-2
2.195714990E1;4.829638898E-1;-9.012130499E-1;-2.109221965E-1
2.197381589E1;5.893571377E-1;-1.169260025E0;-5.028044581E-1
2.199048188E1;4.603270590E-1;-1.406281114E0;-9.343693852E-1
2.200714786E1;1.422126889E-1;-1.610412359E0;-1.434910178E0
2.202381386E1;-2.243711501E-1;-1.794836044E0;-1.902693987E0
2.204047984E1;-5.402218103E-1;-1.937847733E0;-2.324937820E0
2.205714583E1;-8.024098277E-1;-1.974599361E0;-2.565288067E0
2.207381182E1;-1.012133598E0;-1.918939233E0;-2.669683933E0
2.209047781E1;-1.109738350E0;-1.769136548E0;-2.781669617E0
2.210714380E1;-1.087101579E0;-1.515470743E0;-2.934934378E0
2.212380979E1;-9.576719999E-1;-1.236371636E0;-3.047319889E0
2.214047578E1;-7.556713820E-1;-9.692567587E-1;-3.091128826E0
2.215714177E1;-5.546028614E-1;-7.792403698E-1;-2.994722366E0
2.217380776E1;-4.122570157E-1;-6.707166433E-1;-2.784466028E0
2.219047375E1;-3.008038104E-1;-6.394245028E-1;-2.582465410E0
2.220713974E1;-1.752358675E-1;-6.359623671E-1;-2.467550039E0
2.222380573E1;-1.436774284E-1;-6.599308252E-1;-2.456231594E0
2.224047172E1;-2.739059031E-1;-7.285071611E-1;-2.460359573E0
2.225713771E1;-4.121238589E-1;-6.396908164E-1;-2.291382074E0
2.227380370E1;-4.696480930E-1;-5.548691750E-1;-2.138383627E0
2.229046969E1;-3.968107104E-1;-3.653854430E-1;-1.971403480E0
2.230713568E1;-2.185122073E-1;-1.569932252E-1;-1.841441393E0
2.232380167E1;-1.163800508E-1;-2.290316857E-2;-1.687510729E0
2.234046766E1;-1.822932363E-1;2.410159074E-2;-1.430915356E0
2.235713365E1;-3.198454082E-1;4.913528636E-2;-1.085770011E0
2.237379964E1;-3.889544010E-1;4.540686309E-2;-7.450187802E-1
2.239046563E1;-3.149185777E-1;2.277000993E-2;-4.597944319E-1
2.240713162E1;-1.394163817E-1;-3.222422674E-2;-2.254364192E-1
2.242379760E1;3.675159439E-2;-8.655267209E-2;2.929474926E-3
2.244046360E1;1.743037701E-1;-1.246358454E-1;2.544648647E-1
2.245712958E1;2.451438010E-1;-1.391500682E-1;5.359607935E-1
2.247379557E1;2.600574791E-1;-1.392832249E-1;8.020103574E-1
2.249046156E1;2.786996067E-1;-1.165132076E-1;1.050349951E0
2.250712755E1;3.227748871E-1;-9.933583438E-2;1.258608937E0
2.252379354E1;3.976096511E-1;-8.894951642E-2;1.388837457E0
2.254045953E1;3.896201849E-1;-4.154528305E-2;1.492700696E0
2.255712552E1;2.901511788E-1;1.167795286E-1;1.728922844E0
2.257379151E1;1.502021700E-1;3.183806837E-1;2.007622480E0
2.259045750E1;1.078579482E-2;5.548691750E-1;2.182458878E0
2.260712349E1;-6.085318699E-2;8.652604222E-1;2.277666807E0
2.262378948E1;-1.086568907E-1;1.228515267E0;2.386856318E0
2.264045547E1;-1.934785098E-1;1.570331812E0;2.562491655E0
2.265712146E1;-3.062632978E-1;1.751692891E0;2.734398603E0
2.267378745E1;-3.549990952E-1;1.818138719E0;2.829473495E0
2.269045344E1;-3.233075142E-1;1.782052875E0;2.798980236E0
2.270711943E1;-1.905490309E-1;1.678322911E0;2.574476004E0
2.272378542E1;-5.246423557E-2;1.544765472E0;2.263418913E0
2.274045141E1;-1.012000442E-2;1.386573792E0;1.947035670E0
2.275711740E1;-1.039963663E-1;1.243029475E0;1.712011814E0
2.277378339E1;-2.446111590E-1;1.164599419E0;1.567269087E0
2.279044938E1;-3.997401893E-1;1.127981067E0;1.510011196E0
2.280711536E1;-5.444828868E-1;1.128380537E0;1.470330119E0
2.282378136E1;-6.386255622E-1;1.190032601E0;1.400954843E0
2.284044734E1;-6.932203174E-1;1.269794226E0;1.323723197E0
2.285711333E1;-7.298387289E-1;1.356346965E0;1.254747391E0
2.287377932E1;-7.640603185E-1;1.424923301E0;1.213202119E0
2.289044531E1;-7.656582594E-1;1.453685403E0;1.195625305E0
2.290711130E1;-7.077345252E-1;1.416534305E0;1.164333105E0
2.292377729E1;-5.793702602E-1;1.295893192E0;1.118926287E0
2.294044328E1;-4.093275666E-1;1.095090985E0;1.081642032E0
2.295710927E1;-2.864227593E-1;8.338351250E-1;1.053279400E0
2.297377526E1;-2.030658871E-1;5.633913279E-1;9.840372801E-1
2.299044125E1;-1.150484756E-1;4.126565158E-1;9.143956900E-1
2.300710724E1;-5.845634267E-2;3.860249221E-1;8.761793375E-1
2.302377323E1;-6.684529036E-2;3.767038584E-1;8.234487772E-1
2.304043922E1;-1.166463718E-1;4.113249183E-1;7.146587372E-1
2.305710521E1;-1.559279710E-1;5.042691827E-1;5.327649713E-1
2.307377120E1;-9.241162241E-2;5.882918239E-1;3.631217480E-1
2.309043719E1;8.082687855E-2;6.125265956E-1;2.712427676E-1
2.310710318E1;2.632532716E-1;5.270391703E-1;2.352901101E-1
2.312376917E1;4.185154438E-1;3.573959470E-1;2.254364192E-1
2.314043516E1;5.683181286E-1;1.255679578E-1;2.254364192E-1
2.315710115E1;6.737792492E-1;-9.986846894E-2;2.077264041E-1
2.317376714E1;6.982803345E-1;-2.175800949E-1;1.316932142E-1
2.319043313E1;6.471476555E-1;-3.025348783E-1;-3.328948840E-2
2.320709912E1;5.219792128E-1;-3.271690905E-1;-2.083922029E-1
2.322376511E1;4.543349445E-1;-4.082622826E-1;-2.856238186E-1
2.324043110E1;4.865591824E-1;-6.363618970E-1;-3.158506751E-1
2.325709708E1;6.635261178E-1;-1.003345251E0;-2.917490900E-1
2.327376307E1;9.367662072E-1;-1.460609555E0;-3.158506751E-1
2.329042906E1;1.169659495E0;-1.953027725E0;-5.187833905E-1
2.330709505E1;1.251418471E0;-2.304964304E0;-8.866988420E-1
2.332376104E1;1.117461562E0;-2.486458540E0;-1.299488425E0
2.334042703E1;8.195872307E-1;-2.540387392E0;-1.657017589E0
2.335709302E1;4.335623085E-1;-2.481265306E0;-1.916808724E0
2.337375901E1;7.629951090E-2;-2.361289978E0;-2.071271896E0
2.339042500E1;-1.933453530E-1;-2.258491993E0;-2.156493187E0
2.340709099E1;-3.237069845E-1;-2.182858467E0;-2.196706772E0
2.342375698E1;-3.551322520E-1;-2.110420465E0;-2.193377733E0
2.344042297E1;-3.478085697E-1;-2.018408298E0;-2.151832581E0
2.345708896E1;-3.094590902E-1;-1.908952475E0;-2.079794168E0
2.347375495E1;-2.580601275E-1;-1.793504477E0;-2.011084557E0
2.349042094E1;-2.229064107E-1;-1.671398640E0;-1.968740344E0
2.350708693E1;-2.310290486E-1;-1.553953290E0;-1.951962471E0
2.352375292E1;-2.849580348E-1;-1.443964839E0;-1.962348819E0
2.354041891E1;-3.542001545E-1;-1.339702129E0;-1.983520865E0
2.355708490E1;-4.354265034E-1;-1.207210064E0;-1.996037722E0
2.357375089E1;-5.443497300E-1;-1.042094111E0;-2.017476082E0
2.359041688E1;-5.945502520E-1;-7.930887938E-1;-1.880723000E0
2.360708287E1;-6.380929351E-1;-5.744433999E-1;-1.717870831E0
2.362374886E1;-7.210503221E-1;-4.479433596E-1;-1.595764875E0
2.364041485E1;-7.294392586E-1;-3.599259555E-1;-1.534379125E0
2.365708083E1;-6.030724049E-1;-3.250385821E-1;-1.510144353E0
2.367374682E1;-3.589938581E-1;-3.182475269E-1;-1.520797014E0
2.369041281E1;-6.285055727E-2;-2.701774836E-1;-1.480050683E0
2.370707880E1;1.476721764E-1;-2.008021921E-1;-1.318396926E0
2.372374479E1;2.286322117E-1;-1.768337637E-1;-1.082041502E0
2.374041078E1;2.024000883E-1;-1.732385010E-1;-8.504798412E-1
2.375707677E1;1.299621612E-1;-1.475390196E-1;-6.408892274E-1
2.377374276E1;8.894951642E-2;-6.111950055E-2;-4.515386224E-1
2.379040875E1;7.723161578E-2;9.920267761E-2;-2.677806616E-1
2.380707474E1;1.239700541E-1;3.534012139E-1;-1.451421715E-2
2.382374073E1;2.596580088E-1;6.555365920E-1;3.584612012E-1
2.384040672E1;4.149201810E-1;9.100014567E-1;7.860314250E-1
2.385707271E1;4.456796646E-1;1.071921587E0;1.158607364E0
2.387373870E1;1.600558609E-1;1.094957829E0;1.351686358E0
2.389040469E1;-3.732417524E-1;1.127581596E0;1.486974835E0
2.390707068E1;-9.353014827E-1;1.236637950E0;1.739974976E0
2.392373667E1;-1.209606886E0;1.411873817E0;2.151299953E0
2.394040266E1;-1.116263151E0;1.541036963E0;2.610561609E0
2.395706865E1;-7.119956017E-1;1.542634964E0;2.984469175E0
2.397373464E1;-2.371543199E-1;1.407080054E0;3.195258379E0
2.399040063E1;1.139832065E-1;1.234773755E0;3.248388290E0
2.400706662E1;3.247722387E-1;1.037433624E0;3.151715755E0
2.402373261E1;5.411539078E-1;8.018772006E-1;2.949049234E0
2.404039860E1;7.781751156E-1;5.938844681E-1;2.685130119E0
2.405706458E1;8.447540402E-1;4.142543972E-1;2.375537872E0
2.407373057E1;6.885597706E-1;3.295659423E-1;2.051298380E0
2.409039656E1;4.242412448E-1;3.583280444E-1;1.741572857E0
2.410706255E1;1.107874215E-1;4.832302332E-1;1.448359132E0
2.412372854E1;-1.990711391E-1;7.058703303E-1;1.131842613E0
2.414039453E1;-4.668518007E-1;1.045156837E0;8.595346212E-1
2.415706052E1;-7.352982163E-1;1.431181669E0;7.149250507E-1
2.417372651E1;-1.010535717E0;1.792306066E0;6.664555669E-1
2.419039250E1;-1.188168406E0;2.099102020E0;6.351634264E-1
2.420705849E1;-1.252483726E0;2.371410131E0;6.115944982E-1
2.422372448E1;-1.353550673E0;2.530933142E0;6.295707822E-1
2.424039047E1;-1.523992777E0;2.581932783E0;6.538055539E-1
2.425705646E1;-1.658615470E0;2.516951561E0;7.033402920E-1
2.427372245E1;-1.665007114E0;2.326003075E0;7.920235395E-1
2.429038844E1;-1.473925352E0;2.041577816E0;8.973514438E-1
2.430705443E1;-1.191097856E0;1.623994470E0;9.902957082E-1
2.432372042E1;-8.185219765E-1;1.196956873E0;1.054610968E0
2.434038641E1;-4.063980877E-1;8.406261802E-1;1.096156240E0
2.435705240E1;-1.757685095E-2;6.122602820E-1;1.103346825E0
2.437371839E1;3.476754129E-1;4.704470634E-1;1.069657803E0
2.439038438E1;6.226465702E-1;3.972101808E-1;9.839041233E-1
2.440705036E1;7.910913825E-1;3.234406710E-1;8.957535625E-1
2.442371636E1;8.550072312E-1;1.629853398E-1;8.579366803E-1
2.444038234E1;9.018788338E-1;-1.207742617E-1;8.273103833E-1
2.445704833E1;9.391630292E-1;-5.070654750E-1;7.002776861E-1
2.447371432E1;1.013598323E0;-9.175914526E-1;4.157191217E-1
2.449038031E1;1.085903168E0;-1.186304212E0;8.042740822E-2
2.450704630E1;1.018258929E0;-1.268462658E0;-2.436790615E-1
2.452371229E1;7.732482553E-1;-1.180977941E0;-5.269060135E-1
2.454037828E1;5.025381446E-1;-9.592698812E-1;-6.828339696E-1
2.455704427E1;1.778990328E-1;-7.480813861E-1;-7.363634706E-1
2.457371026E1;-1.159805804E-1;-6.559360623E-1;-7.735145688E-1
2.459037625E1;-1.584579647E-1;-6.908234954E-1;-8.447540402E-1
2.460704224E1;4.021370411E-2;-8.197203875E-1;-9.805752039E-1
2.462370823E1;3.466101587E-1;-9.869667888E-1;-1.223987937E0
2.464037422E1;5.745765567E-1;-1.227316856E0;-1.523060679E0
2.465704021E1;6.737792492E-1;-1.483912230E0;-1.798964024E0
2.467370620E1;6.420876384E-1;-1.738776565E0;-1.998301387E0
2.469037219E1;5.648560524E-1;-2.044240952E0;-2.142644644E0
2.470703818E1;4.696480930E-1;-2.371942759E0;-2.229463577E0
2.472370417E1;3.936149180E-1;-2.672213793E0;-2.254497290E0
2.474037016E1;4.016043842E-1;-2.910033941E0;-2.239051104E0
2.475703615E1;4.604602158E-1;-3.044656754E0;-2.190581560E0
2.477370214E1;5.355613232E-1;-3.027612448E0;-2.150501013E0
2.479036813E1;6.411555409E-1;-2.908169746E0;-2.104028940E0
2.480703412E1;6.747113466E-1;-2.713093281E0;-2.027063608E0
2.482370010E1;5.295692086E-1;-2.431064844E0;-1.943174005E0
2.484036610E1;2.593916953E-1;-2.079660892E0;-1.875929236E0
2.485703208E1;-5.526055023E-2;-1.686578631E0;-1.861148715E0
2.487369807E1;-3.463438451E-1;-1.308143735E0;-1.943972945E0
2.489036406E1;-5.297023654E-1;-9.643298984E-1;-2.028927803E0
2.490703005E1;-5.352949500E-1;-6.693850160E-1;-1.989379883E0
2.492369604E1;-4.749744236E-1;-5.350286365E-1;-1.920404077E0
2.494036203E1;-3.912180662E-1;-4.543349445E-1;-1.805355549E0
2.495702802E1;-3.067959249E-1;-3.860249221E-1;-1.685912848E0
2.497369401E1;-2.142511457E-1;-3.273022473E-1;-1.583514452E0
2.499036000E1;-1.470063776E-1;-2.669816911E-1;-1.495363832E0
2.500702599E1;-1.585911214E-1;-2.486059070E-1;-1.401753783E0
2.502369198E1;-1.941442937E-1;-2.592585385E-1;-1.271924734E0
2.504035797E1;-1.990711391E-1;-3.036001325E-1;-1.134638906E0
2.505702396E1;-1.514005959E-1;-2.844253778E-1;-9.399620295E-1
2.507368995E1;-1.944106072E-2;-1.767006069E-1;-6.568682194E-1
2.509035594E1;1.921469271E-1;-4.114580899E-2;-3.198454082E-1
2.510702193E1;4.020038545E-1;1.371526867E-1;2.862896025E-2
2.512368792E1;5.644565821E-1;3.555317521E-1;3.664506972E-1
2.514035391E1;7.032071352E-1;6.133255363E-1;6.684529185E-1
2.515701990E1;8.587356806E-1;8.771114349E-1;9.487504363E-1
2.517368589E1;9.769799113E-1;1.119458914E0;1.225319505E0
2.519035188E1;9.495493770E-1;1.271392107E0;1.490836501E0
2.520701786E1;6.443513632E-1;1.323456883E0;1.713609695E0
2.522368386E1;5.579318479E-2;1.336905837E0;1.880323529E0
2.524034984E1;-6.295707822E-1;1.346759558E0;2.017476082E0
2.525701583E1;-1.157275796E0;1.369662762E0;2.205362082E0
2.527368182E1;-1.349422693E0;1.448359132E0;2.540786982E0
2.529034781E1;-1.131576300E0;1.479518056E0;2.929608107E0
2.530701380E1;-6.050697565E-1;1.411074877E0;3.215631485E0
2.532367979E1;4.554001987E-2;1.306545854E0;3.272756338E0
2.534034578E1;5.311670899E-1;1.170325279E0;3.089663982E0
2.535701177E1;8.066709042E-1;1.024384141E0;2.835598707E0
2.537367776E1;9.291762114E-1;8.843019605E-1;2.580601215E0
2.539034375E1;9.363667369E-1;7.487471700E-1;2.289651155E0
2.540700974E1;8.115977645E-1;6.021402478E-1;1.951030374E0
2.542367573E1;5.313002467E-1;4.536691606E-1;1.597096562E0
2.544034172E1;1.403484792E-1;3.432812095E-1;1.265400052E0
2.545700771E1;-2.559295893E-1;3.492733240E-1;9.737841487E-1
2.547367370E1;-6.267744899E-1;5.301018357E-1;7.761777043E-1
2.549033969E1;-9.395625591E-1;8.811061978E-1;7.048050761E-1
2.550700568E1;-1.154346347E0;1.268196344E0;7.109303474E-1
2.552367167E1;-1.250086904E0;1.628122330E0;7.751124501E-1
2.554033766E1;-1.230246305E0;1.892440915E0;8.194540739E-1
2.555700365E1;-1.096422553E0;2.054760456E0;8.418245912E-1
2.557366964E1;-8.876309395E-1;2.109488249E0;8.242477179E-1
2.559033563E1;-6.913561225E-1;2.034387350E0;8.050730228E-1
2.560700162E1;-5.370260477E-1;1.860216618E0;8.073366880E-1
2.562366760E1;-3.745733202E-1;1.594166994E0;7.973498106E-1
2.564033360E1;-1.986716688E-1;1.300820112E0;7.390266657E-1
2.565699958E1;-7.310371846E-2;9.965541363E-1;6.535392404E-1
2.567366557E1;-3.129211813E-2;7.101313472E-1;5.202481151E-1
2.569033156E1;-1.278316416E-2;4.781702161E-1;3.380880356E-1
2.570699755E1;-2.423474751E-2;3.474090993E-1;1.952095628E-1
2.572366354E1;-2.556632832E-2;3.701791167E-1;1.557948142E-1
2.574032953E1;1.331579551E-4;4.066644013E-1;1.498026997E-1
2.575699552E1;5.739107728E-2;3.648527861E-1;1.153147891E-1
2.577366151E1;1.677790284E-1;2.034653574E-1;8.016108721E-2
2.579032750E1;3.071953952E-1;-4.753739014E-2;6.258423626E-2
2.580699349E1;4.247738719E-1;-2.679138184E-1;9.560741484E-2
2.582365948E1;4.699144363E-1;-3.941475451E-1;1.533979625E-1
2.584032547E1;4.862928391E-1;-4.767054915E-1;1.118526831E-1
2.585699146E1;4.909533858E-1;-5.573992133E-1;-4.593949392E-2
2.587365745E1;4.355596602E-1;-5.997434258E-1;-2.514022291E-1
2.589032344E1;4.439486265E-1;-6.434192657E-1;-3.567301631E-1
2.590698943E1;5.756418109E-1;-8.105324507E-1;-3.962780833E-1
2.592365542E1;7.555382252E-1;-1.128646851E0;-4.282359779E-1
2.594032141E1;8.905603886E-1;-1.539172769E0;-5.258407593E-1
2.595698740E1;9.223851562E-1;-1.918140292E0;-7.146587372E-1
2.597365339E1;9.104009271E-1;-2.200701475E0;-9.804420471E-1
2.599031938E1;8.598009348E-1;-2.325603724E0;-1.257676840E0
2.600698537E1;6.909566522E-1;-2.339851618E0;-1.555151701E0
2.602365136E1;4.230428338E-1;-2.259823561E0;-1.852227211E0
2.604031735E1;5.619265884E-2;-2.118276834E0;-2.103363037E0
2.605698333E1;-3.077280223E-1;-1.973534107E0;-2.285256863E0
2.607364932E1;-5.592634082E-1;-1.863545537E0;-2.373806953E0
2.609031531E1;-6.507429481E-1;-1.753290772E0;-2.325603724E0
2.610698130E1;-6.154560447E-1;-1.669534445E0;-2.194309950E0
2.612364729E1;-4.968123436E-1;-1.613474965E0;-2.029859781E0
2.614031328E1;-3.442133069E-1;-1.582848668E0;-1.901495576E0
2.615697927E1;-1.945437789E-1;-1.548760176E0;-1.836514473E0
2.617364526E1;-1.141163707E-1;-1.467533827E0;-1.809083939E0
2.619031125E1;-1.162468940E-1;-1.367265940E0;-1.804157138E0
2.620697724E1;-1.547295451E-1;-1.280446887E0;-1.846235037E0
2.622364323E1;-2.001364082E-1;-1.166996360E0;-1.912281394E0
2.624030922E1;-3.435475230E-1;-1.079245210E0;-1.957688212E0
2.625697521E1;-5.567334294E-1;-9.938910007E-1;-1.928260326E0
2.627364120E1;-6.733797789E-1;-8.532761931E-1;-1.830788732E0
2.629030719E1;-7.165229321E-1;-7.337003350E-1;-1.798697710E0
2.630697318E1;-7.239798307E-1;-5.759081841E-1;-1.758617163E0
2.632363917E1;-7.242461443E-1;-3.973433375E-1;-1.660213351E0
2.634030516E1;-7.016092539E-1;-2.611227632E-1;-1.526522756E0
2.635697115E1;-6.215813160E-1;-2.005358785E-1;-1.428784847E0
2.637363714E1;-4.547344148E-1;-2.001364082E-1;-1.344362736E0
2.639030313E1;-2.119874656E-1;-2.404832691E-1;-1.253682137E0
2.640696912E1;5.672528967E-2;-2.929475009E-1;-1.129445791E0
2.642363511E1;3.081275225E-1;-3.300985694E-1;-9.424920082E-1
2.644030110E1;5.049349666E-1;-3.290333152E-1;-6.625939608E-1
2.645696708E1;6.229129434E-1;-2.759032845E-1;-2.964096069E-1
2.647363307E1;6.828339696E-1;-2.014679909E-1;4.713791609E-2
2.649029906E1;7.301050425E-1;-1.143826842E-1;3.028011918E-1
2.650696505E1;7.558045387E-1;1.078579482E-2;5.543365479E-1
2.652363104E1;7.540735006E-1;1.440769136E-1;8.339682817E-1
2.654029703E1;6.595313549E-1;2.890859246E-1;1.117861032E0
2.655696302E1;3.641870022E-1;4.451470375E-1;1.367665410E0
2.657362901E1;-6.884266436E-2;6.305029392E-1;1.635312796E0
2.659029500E1;-4.772381186E-1;8.494145870E-1;1.935983539E0
2.660696099E1;-7.356976867E-1;1.079112053E0;2.253032684E0
2.662362698E1;-7.390266657E-1;1.313070655E0;2.568084240E0
2.664029297E1;-4.126565158E-1;1.504152298E0;2.848115444E0
2.665695896E1;1.110537350E-1;1.616537571E0;3.010168791E0
2.667362495E1;6.034718752E-1;1.646764398E0;2.999249697E0
2.669029094E1;9.064062238E-1;1.581783295E0;2.777408600E0
2.670695693E1;1.078046799E0;1.385109067E0;2.456098557E0
2.672362292E1;1.182309508E0;1.092960477E0;2.131858826E0
2.674028891E1;1.227716327E0;7.693866491E-1;1.873798728E0
2.675695490E1;1.122521520E0;5.406212807E-1;1.667403936E0
2.677362089E1;8.334356546E-1;4.460791349E-1;1.463805437E0
2.679028688E1;4.550007284E-1;4.989428520E-1;1.265000582E0
2.680695286E1;1.170458421E-1;6.906903386E-1;1.088832617E0
2.682361886E1;-1.870869249E-1;9.898962379E-1;9.747162461E-1
2.684028485E1;-4.776375890E-1;1.358344316E0;9.189230204E-1
2.685695083E1;-6.233124137E-1;1.664607644E0;9.114661813E-1
2.687361682E1;-6.450171471E-1;1.846900821E0;9.135967493E-1
2.689028281E1;-5.877591968E-1;1.876994491E0;8.700540662E-1
2.690694880E1;-4.729770422E-1;1.787112951E0;7.884282470E-1
2.692361479E1;-3.731085956E-1;1.630519152E0;6.961497664E-1
2.694028078E1;-2.785664499E-1;1.468332767E0;6.175866127E-1
2.695694677E1;-2.504701018E-1;1.321725845E0;5.901560783E-1
2.697361276E1;-2.905506492E-1;1.181244254E0;6.167876720E-1
2.699027875E1;-3.649859428E-1;1.048086286E0;6.487455368E-1
2.700694474E1;-3.545996249E-1;9.333041310E-1;6.604634523E-1
2.702361073E1;-2.537990510E-1;8.372972012E-1;6.644582152E-1
2.704027672E1;-6.431528926E-2;7.507445216E-1;6.548708081E-1
2.705694271E1;1.416800618E-1;6.372939944E-1;6.205160618E-1
2.707360870E1;3.326285779E-1;5.025381446E-1;5.924197435E-1
2.709027469E1;5.223786831E-1;3.652522564E-1;5.869602561E-1
2.710694068E1;7.169224024E-1;1.808284968E-1;5.796365738E-1
2.712360667E1;8.949546218E-1;-5.552686751E-2;5.536707640E-1
2.714027266E1;1.034770489E0;-3.169159293E-1;5.013396740E-1
2.715693865E1;1.125451088E0;-5.153213143E-1;4.388886094E-1
2.717360464E1;1.131709456E0;-6.502103209E-1;3.783017397E-1
2.719027063E1;1.052746773E0;-7.456845641E-1;2.818953991E-1
2.720693662E1;8.992156982E-1;-7.633945346E-1;1.205079481E-1
2.722360260E1;6.808366179E-1;-7.213166356E-1;-8.948214352E-2
2.724026860E1;4.086617529E-1;-6.364950538E-1;-2.906838059E-1
2.725693458E1;2.141179889E-1;-5.568665862E-1;-3.721764982E-1
2.727360057E1;1.647163928E-1;-6.118608117E-1;-3.862912357E-1
2.729026656E1;1.861548275E-1;-8.057388067E-1;-3.865575492E-1
2.730693255E1;2.098569423E-1;-1.097487807E0;-4.664523304E-1
2.732359854E1;1.834916621E-1;-1.406147957E0;-6.785729527E-1
2.734026453E1;8.269108832E-2;-1.647829652E0;-1.000548840E0
2.735693052E1;-1.047953144E-1;-1.761679769E0;-1.339036345E0
2.737359651E1;-3.523359597E-1;-1.772865057E0;-1.619733334E0
2.739026250E1;-6.158555150E-1;-1.745833993E0;-1.821733952E0
2.740692849E1;-7.989477515E-1;-1.749828696E0;-1.962615132E0
2.742359448E1;-8.756467104E-1;-1.810016036E0;-2.075799465E0
2.744026047E1;-8.906935453E-1;-1.874331355E0;-2.090979338E0
2.745692646E1;-8.962861896E-1;-1.843305588E0;-2.067277193E0
2.747359245E1;-8.295740485E-1;-1.827326655E0;-2.003494501E0
2.749025844E1;-7.151913643E-1;-1.788843989E0;-1.920670390E0
2.750692443E1;-6.002760530E-1;-1.740507603E0;-1.851028681E0
2.752359042E1;-5.000081062E-1;-1.660745978E0;-1.804157138E0
2.754025641E1;-4.218443930E-1;-1.559279680E0;-1.785515070E0
2.755692240E1;-3.830954432E-1;-1.450090170E0;-1.804822922E0
2.757358839E1;-3.689807057E-1;-1.358344316E0;-1.853159308E0
2.759025438E1;-3.958786130E-1;-1.261405349E0;-1.890177131E0
2.760692036E1;-4.795017838E-1;-1.143161058E0;-1.863545537E0
2.762358636E1;-6.155892015E-1;-9.997498989E-1;-1.844503999E0
2.764025234E1;-7.000113726E-1;-7.371624112E-1;-1.747698188E0
2.765691833E1;-7.177214026E-1;-4.483428299E-1;-1.593634367E0
2.767358432E1;-7.495461106E-1;-2.197106332E-1;-1.481914878E0
2.769025031E1;-7.329013944E-1;-2.676474862E-2;-1.395761728E0
2.770691630E1;-5.950828791E-1;1.037300453E-1;-1.290700078E0
2.772358229E1;-4.093275666E-1;1.478053331E-1;-1.171257377E0
2.774024828E1;-2.201101035E-1;1.470063776E-1;-1.027180433E0
2.775691427E1;-1.038632076E-2;7.723161578E-2;-8.484824896E-1
2.777358026E1;1.641837656E-1;-3.262370080E-2;-6.831002831E-1
2.779024625E1;2.864227593E-1;-1.004010960E-1;-5.285038948E-1
2.780691224E1;3.271690905E-1;-8.815056831E-2;-3.611243665E-1
2.782357823E1;3.456780612E-1;3.941475600E-2;-1.286305785E-1
2.784024422E1;4.246407151E-1;2.798980176E-1;2.094574571E-1
2.785691021E1;5.926860571E-1;5.054675937E-1;6.106624007E-1
2.787357620E1;7.965508699E-1;6.482129097E-1;9.562072754E-1
2.789024219E1;9.906951785E-1;7.058703303E-1;1.244494200E0
2.790690818E1;1.005209446E0;7.155908346E-1;1.481648564E0
2.792357417E1;7.764440179E-1;7.661908865E-1;1.745700836E0
2.794024016E1;3.772364855E-1;9.361004233E-1;2.015212536E0
2.795690615E1;-1.331579522E-3;1.170991063E0;2.269411087E0
2.797357214E1;-2.047969401E-1;1.367532253E0;2.475539446E0
2.799023813E1;-2.652506530E-1;1.505483866E0;2.636926889E0
2.800690412E1;-1.944106072E-1;1.555418015E0;2.732001781E0
2.802357010E1;-9.614004195E-2;1.528120637E0;2.747847557E0
2.804023610E1;-1.584579609E-2;1.443432212E0;2.688991785E0
2.805690208E1;1.001347825E-1;1.310141087E0;2.536792278E0
2.807356807E1;2.664490640E-1;1.147821546E0;2.296708345E0
2.809023406E1;4.302333593E-1;9.785777926E-1;2.001497269E0
2.810690005E1;5.038697124E-1;8.466182947E-1;1.684847593E0
2.812356604E1;4.195807278E-1;8.122635484E-1;1.392699003E0
2.814023203E1;1.864211410E-1;8.909598589E-1;1.144892097E0
2.815689802E1;-1.399490088E-1;1.087501049E0;1.000681996E0
2.817356401E1;-4.609928429E-1;1.288303256E0;9.017456770E-1
2.819023000E1;-6.876276731E-1;1.521595955E0;8.472840786E-1
2.820689599E1;-8.038745522E-1;1.722664475E0;8.402267098E-1
2.822356198E1;-8.298403621E-1;1.872467160E0;8.696545959E-1
2.824022797E1;-8.062714338E-1;1.913479805E0;9.016125202E-1
2.825689396E1;-7.394261360E-1;1.875796080E0;9.354346395E-1
2.827355995E1;-6.584661007E-1;1.754755497E0;9.938910007E-1
2.829022594E1;-5.283707380E-1;1.565937519E0;1.067527294E0
2.830689193E1;-3.312969804E-1;1.322657943E0;1.153946877E0
2.832355792E1;-1.258342713E-1;1.066462040E0;1.214267373E0
2.834022391E1;1.304947957E-2;8.829703927E-1;1.239833713E0
2.835688990E1;5.712476373E-2;7.587340474E-1;1.209074259E0
2.837355589E1;1.183774248E-1;6.978808641E-1;1.135304689E0
2.839022188E1;2.295643091E-1;6.881603003E-1;1.040895700E0
2.840688786E1;3.934817612E-1;7.414234877E-1;9.275783300E-1
2.842355386E1;5.572660565E-1;8.265114427E-1;8.032087684E-1
2.844021984E1;6.570013762E-1;8.972182870E-1;6.838992834E-1
2.845688583E1;7.249119282E-1;8.773777485E-1;5.825660825E-1
2.847355182E1;7.828356028E-1;7.359640002E-1;5.177181363E-1
2.849021781E1;8.239814043E-1;4.828307331E-1;4.490086138E-1
2.850688380E1;8.552735448E-1;1.451421678E-1;3.631217480E-1
2.852354979E1;7.952193022E-1;-1.270326823E-1;2.346243113E-1
2.854021578E1;6.060018539E-1;-3.346259296E-1;5.938844755E-2
2.855688177E1;3.061301410E-1;-4.692486227E-1;-1.828258783E-1
2.857354776E1;3.728422802E-3;-4.990760088E-1;-3.781685829E-1
2.859021375E1;-1.511342824E-1;-5.009402037E-1;-4.404865205E-1
2.860687974E1;-1.498026997E-1;-6.414218545E-1;-4.450138807E-1
2.862354573E1;-2.237053588E-2;-9.416930676E-1;-4.934833944E-1
2.864021172E1;1.214400530E-1;-1.323057413E0;-6.275734305E-1
2.865687771E1;2.114548385E-1;-1.670200229E0;-8.464851379E-1
2.867354370E1;2.179795653E-1;-1.894438267E0;-1.106276274E0
2.869020969E1;1.651158631E-1;-2.021204710E0;-1.355414867E0
2.870687568E1;5.619265884E-2;-2.091245651E0;-1.580451727E0
2.872354167E1;-1.411474347E-1;-2.144642115E0;-1.778857112E0
2.874020766E1;-3.829622865E-1;-2.196041107E0;-1.948100924E0
2.875687365E1;-5.940176249E-1;-2.275536299E0;-2.068209410E0
2.877353964E1;-7.860314250E-1;-2.230662107E0;-2.094175100E0
2.879020563E1;-8.901609182E-1;-2.185255289E0;-2.059021473E0
2.880687162E1;-8.751140833E-1;-2.086452007E0;-1.967142463E0
2.882353761E1;-7.680550814E-1;-1.984319806E0;-1.859550834E0
2.884020360E1;-6.110618711E-1;-1.863545537E0;-1.763943434E0
2.885686958E1;-4.691154659E-1;-1.734648705E0;-1.708150268E0
2.887353557E1;-3.962780833E-1;-1.599759698E0;-1.683649182E0
2.889020156E1;-3.898864985E-1;-1.453552246E0;-1.667137623E0
2.890686755E1;-4.269044101E-1;-1.334242702E0;-1.655419707E0
2.892353354E1;-4.833633900E-1;-1.258076310E0;-1.662743330E0
2.894019953E1;-5.721797347E-1;-1.234507442E0;-1.691505551E0
2.895686552E1;-6.283723712E-1;-1.145957351E0;-1.668069720E0
2.897353151E1;-5.866939425E-1;-9.456877708E-1;-1.579120159E0
2.899019750E1;-5.344960093E-1;-7.544729710E-1;-1.523726463E0
2.900686349E1;-5.468797088E-1;-5.546028614E-1;-1.469398022E0
2.902352948E1;-6.050697565E-1;-3.685812056E-1;-1.393364787E0
2.904019547E1;-5.749760270E-1;-2.411490530E-1;-1.353816986E0
2.905686146E1;-4.338286221E-1;-1.837579757E-1;-1.368064880E0
2.907352745E1;-2.288985252E-1;-1.531316489E-1;-1.362339020E0
2.909019344E1;-7.536740601E-2;-8.801741153E-2;-1.261272192E0
2.910685943E1;3.968106955E-2;3.941475600E-2;-1.078978896E0
2.912352542E1;7.989477366E-2;1.419463754E-1;-7.954856157E-1
2.914019141E1;5.832318589E-2;2.286322117E-1;-4.984102249E-1
2.915685740E1;2.143843099E-2;3.123885691E-1;-2.062616795E-1
2.917352339E1;4.301001877E-2;4.474107325E-1;9.440898895E-2
2.919018938E1;1.624527127E-1;5.932186842E-1;4.045338631E-1
2.920685537E1;3.596596420E-1;7.434208393E-1;6.932203174E-1
2.922352136E1;5.430181623E-1;8.512787819E-1;9.337036014E-1
2.924018735E1;5.154544711E-1;9.186567068E-1;1.126649499E0
2.925685333E1;2.002695650E-1;9.669930935E-1;1.268462658E0
2.927351932E1;-3.159838319E-1;1.046222091E0;1.439970136E0
2.929018531E1;-8.163914084E-1;1.170325279E0;1.657017589E0
2.930685130E1;-1.092161536E0;1.336240053E0;1.971403480E0
2.932351729E1;-1.000948310E0;1.458212733E0;2.314018965E0
2.934018328E1;-5.784381628E-1;1.478452802E0;2.612692356E0
2.935684927E1;1.278316416E-2;1.438105941E0;2.810564995E0
2.937351526E1;4.820317924E-1;1.366733193E0;2.868888140E0
2.939018125E1;7.516766787E-1;1.263136387E0;2.815358639E0
2.940684724E1;9.416930676E-1;1.152881622E0;2.685396433E0
2.942351323E1;1.086568952E0;1.032906294E0;2.507630587E0
2.944017922E1;1.124252558E0;8.872314692E-1;2.276068926E0
2.945684521E1;9.859014750E-1;7.302381992E-1;2.012149811E0
2.947351120E1;6.779071689E-1;6.221139431E-1;1.776193976E0
2.949017719E1;3.189133108E-1;5.404881239E-1;1.584846020E0
2.950684318E1;3.102580272E-2;5.017392039E-1;1.387505889E0
2.952350917E1;-1.604553312E-1;5.460807681E-1;1.167129517E0
2.954017516E1;-3.371559381E-1;6.901576519E-1;9.937578440E-1
2.955684115E1;-5.273054838E-1;8.924246430E-1;8.777772188E-1
2.957350714E1;-6.792387366E-1;1.100017905E0;8.474172354E-1
2.959017313E1;-7.470161319E-1;1.262204289E0;8.723177910E-1
2.960683912E1;-7.090660930E-1;1.328383803E0;9.056072235E-1
2.962350511E1;-5.834981799E-1;1.266332150E0;9.121319652E-1
2.964017110E1;-4.054659605E-1;1.099751592E0;8.820382953E-1
2.965683708E1;-1.922800839E-1;8.685893416E-1;8.345009089E-1
2.967350307E1;6.538055837E-2;6.122602820E-1;7.776424289E-1
2.969016906E1;3.300985694E-1;4.270375669E-1;7.468829751E-1
2.970683505E1;4.882902205E-1;3.326285779E-1;7.016092539E-1
2.972350104E1;5.808349848E-1;3.147853911E-1;5.994771123E-1
2.974016703E1;6.414218545E-1;3.143859208E-1;4.318312407E-1
2.975683302E1;6.977477074E-1;3.302317262E-1;2.467416972E-1
2.977349901E1;7.297055721E-1;3.113232851E-1;7.416898012E-2
2.979016500E1;7.247787714E-1;2.299637944E-1;-5.392897129E-2
2.980683099E1;6.547376513E-1;8.961530030E-2;-1.455416381E-1
2.982349698E1;5.299686790E-1;-1.038632020E-1;-2.069274634E-1
2.984016297E1;3.707117438E-1;-2.930806577E-1;-2.366216928E-1
2.985682896E1;2.061285079E-1;-4.222438633E-1;-2.595248520E-1
2.987349495E1;8.042740822E-2;-5.033370852E-1;-3.178480268E-1
2.989016094E1;7.590003312E-3;-5.278381109E-1;-4.407528341E-1
2.990682693E1;-1.970737800E-2;-4.647212625E-1;-6.014744639E-1
2.992349292E1;-5.858949851E-3;-3.306311965E-1;-7.843003273E-1
2.994015891E1;3.968106955E-2;-2.073269337E-1;-9.410272837E-1
2.995682490E1;1.728390306E-1;-1.805621833E-1;-9.511472583E-1
2.997349089E1;4.101265073E-1;-3.043990731E-1;-8.368977308E-1
2.999015688E1;6.130592227E-1;-6.327666044E-1;-7.455514073E-1
3.000682286E1;7.868303657E-1;-1.062866807E0;-7.551387548E-1
3.002348886E1;8.254461884E-1;-1.436774373E0;-8.904272318E-1
3.004015484E1;7.211834788E-1;-1.710280776E0;-1.122388363E0
3.005682083E1;4.950812757E-1;-1.855822444E0;-1.379915833E0
3.007348682E1;1.545963883E-1;-1.877260804E0;-1.609080672E0
3.009015281E1;-1.540637612E-1;-1.859817147E0;-1.787112951E0
3.010681880E1;-4.213117659E-1;-1.824796677E0;-1.869537711E0
3.012348479E1;-6.279729009E-1;-1.747431874E0;-1.908819318E0
3.014015078E1;-6.669881940E-1;-1.740108132E0;-1.880190372E0
3.015681677E1;-6.436855793E-1;-1.753157616E0;-1.806021333E0
3.017348276E1;-5.752423406E-1;-1.755953908E0;-1.703622937E0
3.019014875E1;-4.854938984E-1;-1.753956556E0;-1.604420185E0
3.020681474E1;-3.992075622E-1;-1.714808106E0;-1.500690103E0
3.022348073E1;-3.415501416E-1;-1.636378169E0;-1.414403796E0
3.024014672E1;-3.106575012E-1;-1.518000722E0;-1.377652168E0
3.025681271E1;-3.113232851E-1;-1.385242224E0;-1.399090648E0
3.027347870E1;-3.376885653E-1;-1.232110500E0;-1.471661687E0
3.029014469E1;-4.109254479E-1;-1.032373667E0;-1.540637493E0
3.030681068E1;-5.442165732E-1;-8.283756375E-1;-1.542368650E0
3.032347667E1;-7.195855975E-1;-5.780386925E-1;-1.515470743E0
3.034014266E1;-8.169240355E-1;-3.502054214E-1;-1.419330597E0
3.035680865E1;-8.372972012E-1;-1.494032294E-1;-1.337438464E0
3.037347464E1;-7.314366698E-1;-4.833633825E-2;-1.277384281E0
3.039014063E1;-4.399538934E-1;4.940159991E-2;-1.174186826E0
3.040680662E1;-8.242477477E-2;1.416800618E-1;-1.028378844E0
3.042347260E1;1.585911214E-1;1.263668984E-1;-8.554067016E-1
3.044013860E1;2.319611609E-1;2.996053919E-2;-6.396908164E-1
3.045680458E1;2.282327414E-1;-7.337003201E-2;-4.067975581E-1
3.047347057E1;2.279664129E-1;-1.338237375E-1;-1.918806136E-1
3.049013656E1;2.697780132E-1;-1.284974217E-1;-9.054740891E-3
3.050680255E1;2.937464416E-1;-9.760478139E-2;1.688442826E-1
3.052346854E1;2.343579978E-1;-6.804371625E-2;3.644533157E-1
3.054013453E1;1.143826842E-1;4.261054564E-3;5.780386925E-1
3.055680052E1;-1.331579522E-3;1.334242672E-1;7.925561666E-1
3.057346651E1;-5.073318258E-2;3.296990991E-1;1.025582552E0
3.059013250E1;6.791055668E-3;5.327649713E-1;1.278316379E0
3.060679849E1;5.632581562E-2;7.126613855E-1;1.470330119E0
3.062346448E1;-4.207791388E-2;8.387619853E-1;1.584180236E0
3.064013047E1;-3.668501675E-1;9.456877708E-1;1.672463894E0
3.065679646E1;-6.820350289E-1;1.074717879E0;1.751959205E0
3.067346245E1;-8.518114686E-1;1.255812645E0;1.785381913E0
3.069012844E1;-8.643282652E-1;1.585911274E0;1.927727699E0
3.070679443E1;-8.621977568E-1;1.921602488E0;2.134122610E0
3.072346042E1;-8.134619594E-1;2.175534725E0;2.268612146E0
3.074012641E1;-6.118608117E-1;2.287919998E0;2.256361485E0
3.075679240E1;-4.090612531E-1;2.318945885E0;2.143177271E0
3.077345839E1;-3.074617088E-1;2.219210386E0;1.963147759E0
3.079012438E1;-2.597911656E-1;1.992043018E0;1.764209747E0
3.080679036E1;-2.090579867E-1;1.663941860E0;1.589506507E0
3.082345636E1;-2.186453640E-1;1.276718497E0;1.426254869E0
3.084012234E1;-3.281011879E-1;8.873646259E-1;1.254880548E0
3.085678833E1;-4.664523304E-1;5.544697046E-1;1.111735821E0
3.087345432E1;-5.508744717E-1;3.086601496E-1;1.082440972E0
3.089012031E1;-5.729786754E-1;1.852227151E-1;1.141829491E0
3.090678630E1;-5.551354885E-1;1.717737615E-1;1.182842135E0
3.092345229E1;-4.225101769E-1;2.026664019E-1;1.177782059E0
3.094011828E1;-1.747032404E-1;3.033338189E-1;1.160338402E0
3.095678427E1;2.423474751E-2;4.733765423E-1;1.183241606E0
3.097345026E1;9.867004305E-2;6.566019058E-1;1.233841658E0
3.099011625E1;8.322372288E-2;7.777756453E-1;1.222789526E0
3.100678224E1;6.804371625E-2;8.552735448E-1;1.146356821E0
3.102344823E1;4.554001987E-2;8.704535365E-1;1.065529943E0
3.104011422E1;-1.624527015E-2;8.111982346E-1;1.009736776E0
3.105678021E1;-8.362319320E-2;6.831002831E-1;9.695230722E-1
3.107344620E1;-1.423458606E-1;5.147886276E-1;9.253146052E-1
3.109011219E1;-1.428784877E-1;3.561975360E-1;8.500803709E-1
3.110677818E1;-8.468846232E-2;2.511359155E-1;7.688540220E-1
3.112344417E1;-1.464737486E-2;2.487390637E-1;6.974813938E-1
3.114011016E1;6.072002649E-2;3.119890988E-1;6.134586930E-1
3.115677615E1;1.548627019E-1;3.881554306E-1;5.093291998E-1
3.117344214E1;2.359558940E-1;3.749727905E-1;3.844270110E-1
3.119010813E1;2.912164330E-1;2.781669796E-1;2.597911656E-1
3.120677412E1;3.424822688E-1;1.584579647E-1;1.901495606E-1
3.122344010E1;3.802991211E-1;1.145158429E-2;1.657816470E-1
3.124010610E1;4.274370372E-1;-1.407479644E-1;1.595232338E-1
3.125677208E1;4.201133549E-1;-2.270343155E-1;1.134505793E-1
3.127343807E1;3.601922691E-1;-2.492716908E-1;-2.530001104E-3
3.129010406E1;2.613890767E-1;-1.986716688E-1;-1.838911325E-1
3.130677005E1;1.395495385E-1;-5.739107728E-2;-3.616569936E-1
3.132343604E1;2.543316968E-2;8.615319431E-2;-4.961465299E-1
3.134010203E1;4.394212738E-3;6.977476925E-2;-5.751091838E-1
3.135676802E1;1.486042738E-1;-7.656582445E-2;-5.636576414E-1
3.137343401E1;3.888212144E-1;-4.098601937E-1;-5.183839202E-1
3.139010000E1;7.195855975E-1;-8.547409177E-1;-4.755070508E-1
3.140676599E1;1.051814675E0;-1.290566921E0;-4.684496820E-1
3.142343198E1;1.244361043E0;-1.678456068E0;-6.416881680E-1
3.144009797E1;1.237303734E0;-1.958353996E0;-9.892304540E-1
3.145676396E1;9.598025680E-1;-2.126665592E0;-1.403085351E0
3.147342995E1;5.034702420E-1;-2.172338963E0;-1.739309192E0
3.149009594E1;3.262370080E-2;-2.153829813E0;-1.955690861E0
3.150676193E1;-2.573943138E-1;-2.204163551E0;-2.083522558E0
3.152342792E1;-3.308975101E-1;-2.357028961E0;-2.141313076E0
3.154009391E1;-3.042659163E-1;-2.401636839E0;-2.107491016E0
3.155675990E1;-2.190448344E-1;-2.388187885E0;-2.057556629E0
3.157342589E1;-1.235705838E-1;-2.293645859E0;-2.005092382E0
3.159009188E1;-5.805686861E-2;-2.157158852E0;-1.947834611E0
3.160675787E1;-2.902843431E-2;-1.990844607E0;-1.903226614E0
3.162342386E1;-4.554001987E-2;-1.809483409E0;-1.883785605E0
3.164008985E1;-1.045289934E-1;-1.644234419E0;-1.892174602E0
3.165675583E1;-2.203764170E-1;-1.521595955E0;-1.909218788E0
3.167342182E1;-3.386206925E-1;-1.448758602E0;-1.929858208E0
3.169008781E1;-4.125233591E-1;-1.420662165E0;-1.946503043E0
3.170675380E1;-4.367581010E-1;-1.386706948E0;-1.954625607E0
3.172341979E1;-4.873581231E-1;-1.332378507E0;-1.955690861E0
3.174008578E1;-5.946834087E-1;-1.254880548E0;-1.909485102E0
3.175675177E1;-5.697829127E-1;-1.092161536E0;-1.742238641E0
3.177341776E1;-4.744417965E-1;-9.651288390E-1;-1.615206003E0
3.179008375E1;-3.370227814E-1;-8.870983124E-1;-1.581516981E0
3.180674974E1;-1.833585054E-1;-7.623292804E-1;-1.544898629E0
3.182341573E1;-9.494162351E-2;-6.065344810E-1;-1.451554894E0
3.184008172E1;-9.840372950E-2;-4.523375630E-1;-1.335441113E0
3.185674771E1;-1.615206003E-1;-2.929475009E-1;-1.161536813E0
3.187341370E1;-2.575274706E-1;-1.557948142E-1;-9.459540844E-1
3.189007969E1;-3.174485564E-1;-5.219791830E-2;-7.317029834E-1
3.190674568E1;-2.860232890E-1;5.166528746E-2;-5.197154880E-1
3.192341167E1;-2.280995846E-1;1.716406047E-1;-2.909501195E-1
3.194007766E1;-1.921469271E-1;3.552654386E-1;-1.810948178E-2
3.195674365E1;-1.364869028E-1;5.482112765E-1;3.330280483E-1
3.197340964E1;1.398158539E-2;7.054708600E-1;7.149250507E-1
3.199007563E1;3.009369671E-1;8.022766709E-1;1.048752069E0
3.200674162E1;5.175849795E-1;8.343677521E-1;1.262337446E0
3.202340760E1;4.593949318E-1;8.787093163E-1;1.436374903E0
3.204007360E1;1.533979625E-1;9.731183648E-1;1.636111736E0
3.205673958E1;-2.925480306E-1;1.115197897E0;1.859817147E0
3.207340557E1;-6.334323883E-1;1.294428468E0;2.146373034E0
3.209007156E1;-6.848313808E-1;1.471262217E0;2.473675251E0
3.210673755E1;-3.965443969E-1;1.560078621E0;2.745850086E0
3.212340354E1;9.853688627E-2;1.544099689E0;2.883269310E0
3.214006953E1;6.119939685E-1;1.456614852E0;2.902443886E0
3.215673552E1;9.607346654E-1;1.327851176E0;2.819486618E0
3.217340151E1;1.169526339E0;1.139299512E0;2.683132887E0
3.219006750E1;1.266731620E0;9.078709483E-1;2.493915319E0
3.220673349E1;1.223188996E0;6.861629486E-1;2.243711472E0
3.222339948E1;9.849693775E-1;5.534044504E-1;1.953427196E0
3.224006547E1;5.779055357E-1;5.478118062E-1;1.666738153E0
3.225673146E1;1.058605760E-1;6.941524148E-1;1.433445334E0
3.227339745E1;-3.454117477E-1;9.560741186E-1;1.255945802E0
3.229006344E1;-7.301050425E-1;1.291232705E0;1.158341050E0
3.230672943E1;-9.881651998E-1;1.610012889E0;1.099085808E0
3.232339542E1;-1.110137820E0;1.857819796E0;1.052480459E0
3.234006141E1;-1.125983715E0;2.030658722E0;1.035835743E0
3.235672740E1;-1.052214146E0;2.073801994E0;1.051415205E0
3.237339339E1;-9.303746223E-1;2.023867846E0;1.070323586E0
3.239005938E1;-7.543398142E-1;1.882587194E0;1.080976248E0
3.240672536E1;-5.495429039E-1;1.650093436E0;1.068992019E0
3.242339136E1;-3.777691126E-1;1.349555850E0;1.045423150E0
3.244005734E1;-2.071937770E-1;1.046355247E0;1.033438921E0
3.245672333E1;-7.989477599E-4;8.306393027E-1;1.008671522E0
3.247338932E1;1.597895473E-1;7.555382252E-1;9.772462249E-1
3.249005531E1;2.524674833E-1;7.346324325E-1;9.198551774E-1
3.250672130E1;3.611243665E-1;7.985482812E-1;8.837693334E-1
3.252338729E1;4.576638937E-1;8.673909307E-1;8.157256246E-1
3.254005328E1;5.412870646E-1;8.664588332E-1;7.218492627E-1
3.255671927E1;6.567350626E-1;7.507445216E-1;6.464818716E-1
3.257338526E1;7.680550814E-1;5.340965390E-1;5.833650231E-1
3.259005125E1;8.390282989E-1;2.672480047E-1;5.242428780E-1
3.260671724E1;8.189214468E-1;-1.531316526E-2;4.608596861E-1
3.262338323E1;7.053377032E-1;-2.070606202E-1;3.933486044E-1
3.264004922E1;5.371592045E-1;-3.689807057E-1;2.712427676E-1
3.265671521E1;3.852259517E-1;-4.676507413E-1;6.498108059E-2
3.267338120E1;2.530001104E-1;-4.595280886E-1;-1.420795321E-1
3.269004719E1;8.934898674E-2;-3.315632939E-1;-3.265033066E-1
3.270671318E1;-3.195790946E-2;-2.330264151E-1;-4.491417706E-1
3.272337917E1;4.247738793E-2;-2.942790687E-1;-4.649875760E-1
3.274004516E1;2.230395675E-1;-5.327649713E-1;-4.671181142E-1
3.275671115E1;4.683165252E-1;-8.961530328E-1;-4.828307331E-1
3.277337714E1;6.306360960E-1;-1.262071133E0;-6.375603080E-1
3.279004313E1;6.669881940E-1;-1.578987002E0;-9.495493770E-1
3.280670912E1;5.550023317E-1;-1.759416103E0;-1.347025871E0
3.282337510E1;2.806969583E-1;-1.829856634E0;-1.736779213E0
3.284004110E1;-5.712476373E-2;-1.861281872E0;-2.030259371E0
3.285670708E1;-3.339601457E-1;-1.957288742E0;-2.196840048E0
3.287337307E1;-4.926844239E-1;-2.086718321E0;-2.269544125E0
3.289003906E1;-5.219792128E-1;-2.220808268E0;-2.256361485E0
3.290670505E1;-4.613923132E-1;-2.349572182E0;-2.169009924E0
3.292337104E1;-3.755054474E-1;-2.349572182E0;-2.056757689E0
3.294003703E1;-3.292996287E-1;-2.259956837E0;-1.945304513E0
3.295670302E1;-3.250385821E-1;-2.094974041E0;-1.860083461E0
3.297336901E1;-3.474090993E-1;-1.891109228E0;-1.797898769E0
3.299003500E1;-3.657849133E-1;-1.682184458E0;-1.761013985E0
3.300670099E1;-4.051996469E-1;-1.494032264E0;-1.764076591E0
3.302336698E1;-4.557996690E-1;-1.366200566E0;-1.786180854E0
3.304003297E1;-5.127912760E-1;-1.281778455E0;-1.785248756E0
3.305669896E1;-5.651223660E-1;-1.230512619E0;-1.761946082E0
3.307336495E1;-5.994771123E-1;-1.167129517E0;-1.736779213E0
3.309003094E1;-6.659229398E-1;-1.072187901E0;-1.725460768E0
3.310669693E1;-8.040077090E-1;-9.422256947E-1;-1.753823400E0
3.312336292E1;-8.037413955E-1;-7.170555592E-1;-1.643036008E0
3.314002891E1;-7.258440256E-1;-5.151881576E-1;-1.577655435E0
3.315669490E1;-6.061350107E-1;-3.451454341E-1;-1.534778595E0
3.317336089E1;-4.627238810E-1;-1.936116666E-1;-1.486309052E0
3.319002688E1;-3.105243444E-1;-7.896266878E-2;-1.464071751E0
3.320669286E1;-1.161137372E-1;4.793686327E-3;-1.466069102E0
3.322335886E1;8.295740932E-2;1.310274303E-1;-1.377652168E0
3.324002484E1;2.105227262E-1;2.202432603E-1;-1.208275318E0
3.325669083E1;2.607232630E-1;2.548643351E-1;-9.635309577E-1
3.327335682E1;2.259690464E-1;2.568616867E-1;-6.454166174E-1
3.329002281E1;1.968074590E-1;2.451438010E-1;-2.880206704E-1
3.330668880E1;3.150517344E-1;2.868222296E-1;2.676474862E-2
3.332335479E1;6.058686972E-1;4.187817574E-1;3.406180441E-1
3.334002078E1;9.793767333E-1;6.024065614E-1;6.803039908E-1
3.335668677E1;1.277117968E0;7.563371658E-1;1.016794205E0
3.337335276E1;1.308143735E0;8.736493587E-1;1.274454832E0
3.339001875E1;9.751157165E-1;9.784446359E-1;1.477254391E0
3.340668474E1;3.648527861E-1;1.092960477E0;1.689241767E0
3.342335073E1;-3.098585606E-1;1.227982640E0;1.935317755E0
3.344001672E1;-7.773761153E-1;1.390435338E0;2.245309353E0
3.345668271E1;-9.218525290E-1;1.498692751E0;2.584329605E0
3.347334870E1;-7.317029834E-1;1.526123285E0;2.894321203E0
3.349001469E1;-3.423491120E-1;1.487107992E0;3.098319292E0
3.350668068E1;7.656582445E-2;1.427586436E0;3.181010485E0
3.352334667E1;4.157191217E-1;1.348623753E0;3.135603428E0
3.354001266E1;7.041392922E-1;1.206277966E0;2.968490362E0
3.355667865E1;9.580714703E-1;1.026115179E0;2.692453861E0
3.357334464E1;1.040496230E0;8.364982605E-1;2.360491037E0
3.359001063E1;8.946883082E-1;6.841655970E-1;2.023601532E0
3.360667662E1;5.584644675E-1;6.086649895E-1;1.684181809E0
3.362334261E1;1.316932142E-1;5.870934129E-1;1.397226453E0
3.364000860E1;-2.744385600E-1;6.494113207E-1;1.152748466E0
3.365667458E1;-6.114613414E-1;7.916240692E-1;9.619330764E-1
3.367334057E1;-8.315714002E-1;1.032240510E0;8.602004051E-1
3.369000656E1;-9.539436102E-1;1.292697430E0;8.064045906E-1
3.370667255E1;-9.894967675E-1;1.531183362E0;7.937545776E-1
3.372333854E1;-9.725856781E-1;1.709481835E0;8.066709042E-1
