"Time (s)";"Linear Acceleration x (m/s^2)";"Linear Acceleration y (m/s^2)";"Linear Acceleration z (m/s^2)"
8.394002000E-2;0.000000000E0;0.000000000E0;0.000000000E0
1.006060100E-1;1.971859932E-1;-2.279558182E-1;-5.713739395E-1
1.172719990E-1;4.125599861E-1;-4.036593437E-1;-7.688465118E-1
1.339379890E-1;-3.601953983E-1;-1.978592873E-1;-2.631502151E-1
1.506039780E-1;-7.446627617E-1;-4.277715683E-1;4.361515045E-1
1.672699680E-1;-4.674484730E-1;-9.377393723E-1;1.505105019E0
1.839359580E-1;-3.656921387E-1;-1.144387007E0;2.044026375E0
2.006019470E-1;-1.374907494E-1;-1.373770237E0;1.297521591E0
2.172679370E-1;-7.612109184E-2;-1.575294137E0;-4.334449768E-3
2.339339260E-1;6.502032280E-2;-1.482885957E0;-1.216703415E0
2.505999160E-1;5.930039883E-1;-1.297714710E0;-2.129117966E0
2.672659050E-1;7.986352444E-1;-1.165883422E0;-2.941746235E0
2.839318950E-1;7.673523426E-1;-1.050704718E0;-3.153606892E0
3.005978850E-1;6.307860613E-1;-8.729945421E-1;-2.552956581E0
3.172638740E-1;3.378902674E-1;-7.281700373E-1;-2.082384109E0
3.339298640E-1;8.212447166E-3;-5.088499784E-1;-2.102109909E0
3.505958530E-1;-2.550082207E-1;-3.151612282E-1;-2.120058537E0
3.672618430E-1;-6.021248698E-1;-1.830499172E-1;-2.221380234E0
3.839278330E-1;-8.302319050E-1;2.602195740E-2;-2.505590916E0
4.005938220E-1;-8.924537897E-1;9.125471115E-2;-2.383271217E0
4.172598120E-1;-7.041062713E-1;8.889055252E-2;-1.929843903E0
4.339258010E-1;-6.922057271E-1;3.245608807E-1;-1.958006859E0
4.505917910E-1;-3.707877398E-1;6.226260662E-1;-2.173421383E0
4.672577800E-1;9.845685959E-2;8.495748043E-1;-1.934854031E0
4.839237700E-1;4.114673138E-1;1.070370674E0;-1.553760529E0
5.005897600E-1;1.174786687E-1;1.231599569E0;-1.404261589E0
5.172557490E-1;-1.713507771E-1;1.227015495E0;-1.619117260E0
5.339217390E-1;1.650803089E-1;1.404055119E0;-1.186861038E0
5.505877280E-1;5.813977718E-1;1.594742298E0;-6.069173813E-1
5.672537180E-1;8.205251694E-1;1.670561790E0;3.719997406E-2
5.839197080E-1;1.000537038E0;1.818335295E0;1.510229111E-1
6.005856970E-1;6.281912327E-1;1.702888250E0;-6.666364670E-1
6.172516870E-1;4.391915798E-1;1.496427298E0;1.708936691E-1
6.339176760E-1;4.095174074E-1;1.680178642E0;1.175261497E0
6.505836660E-1;1.349850893E-1;1.897815943E0;9.337844849E-1
6.672496550E-1;1.334512234E-2;1.660793066E0;1.092574120E0
6.839156450E-1;-4.827782512E-1;1.120330095E0;1.623255730E0
7.005816350E-1;-1.171879411E0;9.752919674E-1;2.085713387E0
7.172476240E-1;-1.366963744E0;7.838914394E-1;2.468369484E0
7.339136140E-1;-9.410088062E-1;1.123769760E0;2.965647697E0
7.505796030E-1;-8.791223168E-1;8.840167522E-1;2.934387207E0
7.672455930E-1;-7.404423356E-1;6.140732765E-1;2.658050537E0
7.839115830E-1;-1.027220368E0;3.538417816E-1;2.277420044E0
8.005775720E-1;-8.798393011E-1;-2.614426613E-1;2.303886414E0
8.172435620E-1;-1.235306263E0;-8.895927668E-1;2.658342361E0
8.339095510E-1;-8.933370113E-1;-1.466843724E0;3.035363197E0
8.505755410E-1;-3.343592882E-1;-1.483268976E0;3.148118973E0
8.672415300E-1;-4.898217916E-1;-1.061864853E0;2.123970032E0
8.839075200E-1;-8.148110509E-1;-6.883187294E-1;3.111753464E-1
9.005735100E-1;-9.226865172E-1;-4.665799141E-1;-1.120786667E0
9.172394990E-1;-1.401200533E0;-2.482471466E-1;-1.946316719E0
9.339054890E-1;-1.355464935E0;1.220479012E-1;-1.705205441E0
9.505714780E-1;-8.032419682E-1;5.138859749E-1;-1.700423241E0
9.672374680E-1;-3.995398879E-1;2.821967602E-1;-2.358251095E0
9.839034580E-1;-2.792282701E-1;-3.973917961E-1;-2.640655994E0
1.000569447E0;-1.418160796E-1;-7.710750103E-1;-2.605633736E0
1.017235437E0;1.606454849E-1;-6.433042288E-1;-2.226571083E0
1.033901426E0;5.461284518E-1;-1.281437874E-1;-1.657847404E0
1.050567416E0;2.838739157E-1;-9.498596191E-3;-2.033757210E0
1.067233405E0;3.263491392E-2;2.762756348E-1;-2.150451660E0
1.083899395E0;5.042690039E-1;1.037093163E0;-2.321559906E0
1.100565385E0;8.673509359E-1;8.411700726E-1;-3.654067993E0
1.117231374E0;1.064922512E-1;7.611041069E-1;-3.978233814E0
1.133897364E0;-8.413279057E-1;1.063546896E0;-1.919658184E0
1.150563353E0;-9.071654081E-1;2.703654766E-1;-2.255802155E-1
1.167229343E0;-1.361357212E0;-2.489700317E-1;7.037706375E-1
1.183895333E0;-2.127708673E0;2.832889557E-3;3.756322861E-1
1.200561322E0;-1.831364036E0;3.561689854E-1;-5.433006287E-1
1.217227312E0;-1.426491022E0;8.205432892E-1;-1.052650452E0
1.233893301E0;-1.064858675E0;1.148675680E0;-3.726596832E-1
1.250559291E0;-3.175759912E-1;1.375206232E0;6.856870651E-1
1.267225280E0;1.110005379E-2;1.623913288E0;1.020097733E0
1.283891270E0;-7.525312901E-2;1.636552334E0;8.605957031E-1
1.300557260E0;-2.010053098E-1;1.292570829E0;9.014158249E-1
1.317223249E0;-3.500639796E-1;9.290089607E-1;1.694531441E0
1.333889239E0;-5.447803140E-1;8.757495880E-1;2.853054047E0
1.350555228E0;-1.167630553E-1;1.201340437E0;3.074539185E0
1.367221218E0;4.316318631E-1;1.173558950E0;2.522995949E0
1.383887208E0;4.485793710E-1;7.708344460E-1;2.083008766E0
1.400553197E0;6.377184391E-2;2.659366131E-1;2.161400795E0
1.417219187E0;-1.089474857E-1;-4.011499882E-1;2.598254204E0
1.433885176E0;-9.168863297E-3;-1.044514060E0;3.140214920E0
1.450551166E0;4.170482755E-1;-1.460095048E0;3.699913025E0
1.467217155E0;8.420553207E-1;-1.750819087E0;3.543628693E0
1.483883145E0;1.110901356E0;-1.710415483E0;2.243196487E0
1.500549135E0;1.147659659E0;-1.495391846E0;4.379606247E-1
1.517215124E0;1.322716713E0;-1.355748296E0;-1.110777855E0
1.533881114E0;1.031905532E0;-1.232504010E0;-2.078558445E0
1.550547103E0;8.857479095E-1;-1.512628913E0;-2.529942513E0
1.567213093E0;7.545057535E-1;-1.484685421E0;-2.418226719E0
1.583879083E0;7.785778642E-1;-1.360602260E0;-1.787951946E0
1.600545072E0;5.012674332E-1;-1.252118707E0;-1.724339962E0
1.617211062E0;1.904120743E-1;-1.035665154E0;-1.765992165E0
1.633877051E0;1.638812572E-2;-7.214777470E-1;-1.561441422E0
1.650543041E0;-1.220132709E-1;-4.955302477E-1;-1.388179779E0
1.667209030E0;-7.899870723E-2;-1.967878342E-1;-1.644649982E0
1.683875020E0;-1.177191138E-1;1.340022087E-1;-2.104424953E0
1.700541010E0;-3.158853948E-2;2.748174667E-1;-2.418849945E0
1.717206999E0;5.367916077E-2;3.355410099E-1;-2.446438789E0
1.733872989E0;3.516678810E-1;3.590443134E-1;-2.078631401E0
1.750538978E0;3.738225102E-1;2.715828419E-1;-1.739077091E0
1.767204968E0;4.049177170E-1;1.923918724E-1;-1.294623375E0
1.783870958E0;6.448729634E-1;3.205611706E-1;-9.517402649E-1
1.800536947E0;8.303382397E-1;4.506061077E-1;-9.204654694E-1
1.817202937E0;8.342930675E-1;6.419205666E-1;-6.463403702E-1
1.833868926E0;6.483433843E-1;8.090229034E-1;-1.688499451E-1
1.850534916E0;5.913838744E-1;1.039196014E0;3.112678528E-1
1.867200905E0;5.933067203E-1;1.393814802E0;4.994812012E-1
1.883866895E0;3.960831761E-1;1.693666458E0;4.105176926E-1
1.900532885E0;9.073857963E-2;1.608486891E0;2.440328598E-1
1.917198874E0;-6.348110735E-3;1.539590359E0;2.365512848E-1
1.933864864E0;-8.251085877E-2;1.330819130E0;7.125349045E-1
1.950530853E0;-8.373572677E-2;9.444465637E-1;1.213061333E0
1.967196843E0;-1.198479459E-1;8.339309692E-1;1.680914879E0
1.983862833E0;-1.326890290E-2;9.936749935E-1;2.177990913E0
2.000528822E0;-4.366993606E-1;9.970266819E-1;2.623096466E0
2.017194812E0;-9.049206972E-1;8.396160603E-1;3.072918892E0
2.033860801E0;-1.063745260E0;6.390922070E-1;3.971820831E0
2.050526791E0;-1.093190551E0;8.333444595E-2;4.782113075E0
2.067192780E0;-9.198707342E-1;-6.179809570E-1;4.840322495E0
2.083858770E0;-6.702406406E-1;-1.219115496E0;4.501585960E0
2.100524760E0;-7.486328483E-1;-1.329319477E0;3.444909096E0
2.117190749E0;-5.987961292E-1;-1.373309135E0;2.173580170E0
2.133856739E0;-6.691113710E-1;-1.288676739E0;7.217340469E-1
2.150522728E0;-8.757016063E-1;-1.023880005E0;-8.421993256E-1
2.167188718E0;-8.273924589E-1;-8.319025040E-1;-1.870712757E0
2.183854708E0;-1.003052711E0;-1.114581347E0;-2.433448792E0
2.200520697E0;-1.346261501E0;-9.398450851E-1;-2.469043255E0
2.217186687E0;-1.298063397E0;-7.226216793E-1;-2.335989475E0
2.233852676E0;-1.339412689E0;-1.325845480E0;-2.127518654E0
2.250518666E0;-7.928515077E-1;-1.571772337E0;-2.033644199E0
2.267184655E0;-7.400142550E-1;-1.132827044E0;-2.046320438E0
2.283850645E0;-2.531298995E-1;-1.146938324E0;-2.210299015E0
2.300516635E0;-1.653910279E-1;-9.545965195E-1;-2.290782452E0
2.317182624E0;-3.602303267E-1;-4.154820442E-1;-2.056985378E0
2.333848614E0;-5.512579679E-1;-1.194317341E-1;-1.984825134E0
2.350514603E0;-6.210484505E-1;-1.061058044E-1;-2.261607647E0
2.367180593E0;-3.815598488E-1;-2.766895294E-2;-2.517714977E0
2.383846583E0;-1.669941545E-1;3.458976746E-3;-2.532110691E0
2.400512572E0;-2.081585526E-1;-1.091399193E-1;-2.284110546E0
2.417178562E0;-3.237321079E-1;2.209663391E-2;-1.531584263E0
2.433844551E0;-2.834580243E-1;2.413411140E-1;-9.938206673E-1
2.450510541E0;-1.720237732E-1;5.134110451E-1;-7.488918304E-1
2.467176530E0;-1.358671784E-1;8.830680847E-1;-5.378189087E-1
2.483842520E0;-1.713712513E-1;1.115192890E0;-3.678483963E-1
2.500508510E0;1.674830914E-2;1.229921818E0;-3.550710678E-1
2.517174499E0;1.700087190E-1;1.340831757E0;-4.901885986E-2
2.533840489E0;1.511203051E-1;1.456175804E0;3.461236954E-1
2.550506478E0;-3.975690603E-1;1.817499638E0;8.340311050E-1
2.567172468E0;-7.225770950E-1;2.041615963E0;1.221069336E0
2.583838458E0;-5.249720812E-1;1.946025372E0;1.646446228E0
2.600504447E0;-9.821182489E-2;1.495370865E0;2.141654015E0
2.617170437E0;1.585124731E-1;1.469416142E0;2.364761353E0
2.633836426E0;3.679550886E-1;1.729519844E0;1.885845184E0
2.650502416E0;6.158435345E-1;1.524260998E0;1.311240196E0
2.667168405E0;5.287576914E-1;1.039345741E0;1.466546059E0
2.683834395E0;3.983837366E-1;4.269909859E-1;1.991226196E0
2.700500385E0;3.222788572E-1;-3.558530807E-1;2.603213310E0
2.717166374E0;3.057440519E-1;-5.650658607E-1;3.104079247E0
2.733832364E0;2.557641268E-1;-7.025501728E-1;3.323151588E0
2.750498353E0;1.132873297E-1;-9.392733574E-1;2.803380013E0
2.767164343E0;2.262625694E-1;-1.035811186E0;1.680751801E0
2.783830333E0;3.354184628E-1;-1.137820005E0;4.787712097E-1
2.800496322E0;3.701308966E-1;-1.367062330E0;-4.133329391E-1
2.817162312E0;4.176684618E-1;-1.333143711E0;-1.095229626E0
2.833828301E0;2.802234888E-1;-1.253442287E0;-1.450562477E0
2.850494291E0;2.409110069E-1;-1.298137665E0;-1.903574467E0
2.867160280E0;8.524348736E-1;-1.093513966E0;-1.762862206E0
2.883826270E0;7.876642942E-1;-1.310164690E0;-1.295908928E0
2.900492260E0;5.218163729E-1;-1.487975597E0;-7.951245308E-1
2.917158249E0;4.752910137E-1;-1.376322746E0;-6.839604378E-1
2.933824239E0;2.657622099E-1;-1.167278528E0;-1.112979889E0
2.950490228E0;3.454005718E-2;-8.047037125E-1;-1.778428555E0
2.967156218E0;-1.296901703E-2;-5.479807854E-1;-2.349912167E0
2.983822208E0;2.534750700E-1;-5.740532875E-1;-2.275021076E0
3.000488197E0;3.357708454E-2;-3.574080467E-1;-2.313697815E0
3.017154187E0;-2.034049630E-1;-5.880832672E-2;-2.329084873E0
3.033820176E0;-3.490504622E-1;1.211342812E-1;-2.443270206E0
3.050486166E0;-5.381923914E-2;2.760925293E-1;-2.167993069E0
3.067152155E0;5.158668160E-1;3.066492081E-1;-1.649169445E0
3.083818145E0;7.412025928E-1;4.783420563E-1;-9.019203186E-1
3.100484135E0;8.421755433E-1;6.049761772E-1;-6.733980179E-1
3.117150124E0;7.842485309E-1;7.241597176E-1;-9.442267418E-1
3.133816114E0;5.384651423E-1;9.091281891E-1;-7.625250816E-1
3.150482103E0;6.222479939E-1;9.444527626E-1;2.024927139E-1
3.167148093E0;5.913004875E-1;1.179216862E0;8.688259125E-2
3.183814083E0;2.963640094E-1;1.620382786E0;-6.245822906E-1
3.200480072E0;2.827399373E-1;1.762332916E0;-1.131388187E0
3.217146062E0;4.882497191E-1;1.790187359E0;-6.915197372E-1
3.233812051E0;4.989961386E-1;1.583697319E0;2.343997955E-1
3.250478041E0;7.953889370E-1;1.173334122E0;8.560314178E-1
3.267144030E0;1.257340670E0;7.165470123E-1;1.678705215E0
3.283810020E0;1.385715723E0;6.395759583E-1;2.432646751E0
3.300476010E0;1.019616604E0;1.385261536E0;2.418937683E0
3.317141999E0;3.494874239E-1;1.825563908E0;2.201581955E0
3.333807989E0;-5.761318207E-1;1.983098030E0;2.357777596E0
3.350473978E0;-1.531620264E0;1.953404903E0;2.823761940E0
3.367139968E0;-1.840734482E0;1.111388683E0;2.818434715E0
3.383805958E0;-8.895945549E-1;-1.905443668E-1;2.893865585E0
3.400471947E0;4.356544614E-1;-7.613310814E-1;3.050184250E0
3.417137937E0;5.229821205E-1;-8.415424824E-1;3.441793442E0
3.433803926E0;9.280443788E-1;-9.313626289E-1;2.813388824E0
3.450469916E0;3.633024693E-1;-1.051698685E0;1.377740860E0
3.467135905E0;-3.477221429E-1;-9.118771553E-1;-1.307039261E-1
3.483801895E0;-7.169656754E-1;-7.971889973E-1;-1.431845188E0
3.500467885E0;-9.202572703E-1;-8.778035641E-1;-2.025841236E0
3.517133874E0;-1.099637985E0;-1.125167370E0;-2.169406891E0
3.533799864E0;-1.123568296E0;-1.430284500E0;-2.026765347E0
3.550465853E0;-8.609234095E-1;-1.753749847E0;-1.702660561E0
3.567131843E0;-9.086385965E-1;-2.183693886E0;-1.258183956E0
3.583797833E0;-9.570350647E-1;-2.195760250E0;-1.235941887E0
3.600463822E0;-9.780991077E-1;-1.822984219E0;-1.453376770E0
3.617129812E0;-1.745553762E-1;-1.130679846E0;-2.075644493E0
3.633795801E0;-1.593073756E-1;-4.604973793E-1;-2.136998177E0
3.650461791E0;-6.973481774E-1;-9.381771088E-4;-1.941420078E0
3.667127780E0;-2.547328770E-1;2.057218552E-1;-2.293441772E0
3.683793770E0;2.750097811E-1;4.344122410E-1;-2.825376987E0
3.700459760E0;-4.053075016E-1;6.184046268E-1;-2.805480957E0
3.717125749E0;-3.160972595E-1;4.144103527E-1;-2.370368004E0
3.733791739E0;-4.927532077E-1;3.036026955E-1;-1.512313843E0
3.750457728E0;-6.792217493E-1;4.881029129E-1;-6.022224426E-1
3.767123718E0;-3.959062696E-1;7.713124752E-1;-1.819820404E-1
3.783789708E0;-1.546890140E-1;1.133486271E0;-1.265506744E-1
3.800455697E0;-4.026605487E-1;1.288795710E0;2.046842575E-1
3.817121687E0;2.596991658E-1;1.592168570E0;2.166032791E-1
3.833787676E0;1.113419294E0;1.814493656E0;1.123218536E-1
3.850453666E0;1.733299136E0;1.944763422E0;-1.601715088E-1
3.867119655E0;8.380529881E-1;1.747868061E0;-8.428449631E-1
3.883785645E0;6.846715212E-1;1.183540821E0;6.027860641E-1
3.900451635E0;1.740157604E-1;1.132297039E0;2.141704559E0
3.917117624E0;-1.334456205E-1;9.284803867E-1;2.841680527E0
3.933783614E0;-2.261856198E-1;9.258856773E-1;2.720076561E0
3.950449603E0;-3.846564889E-1;1.368530273E0;2.051817894E0
3.967115593E0;-2.957938910E-1;1.289892435E0;1.583647728E0
3.983781583E0;-2.346954346E-1;7.909612656E-1;1.550374031E0
4.000447572E0;1.368336678E-1;5.756807327E-1;1.847404480E0
4.017113562E0;6.199557781E-1;-1.254117489E-1;2.654408455E0
4.033779551E0;8.234699965E-1;-6.285948753E-1;3.113779068E0
4.050445541E0;4.763194323E-1;-5.831460953E-1;3.739764214E0
4.067111530E0;3.926939964E-1;-5.579514503E-1;3.467232704E0
4.083777520E0;5.839401484E-1;-9.258277416E-1;2.393588066E0
4.100443510E0;7.747637033E-1;-1.497542381E0;1.168811798E0
4.117109499E0;4.500186443E-1;-1.605041265E0;1.283264160E-1
4.133775489E0;2.539302111E-1;-1.431560040E0;-7.528333664E-1
4.150441478E0;5.905921459E-1;-1.423236132E0;-1.358736038E0
4.167107468E0;4.744142294E-1;-1.255891562E0;-1.619516850E0
4.183773458E0;3.002635241E-1;-1.116423130E0;-1.580780506E0
4.200439447E0;2.968162298E-1;-1.202200651E0;-1.862508297E0
4.217105437E0;7.308895588E-1;-1.328071117E0;-2.156498909E0
4.233771426E0;-1.285362244E-2;-1.459828258E0;-1.957764149E0
4.250437416E0;-2.349324226E-1;-7.327110767E-1;-1.601655006E0
4.267103405E0;6.649565697E-2;-4.197163582E-1;-1.380874157E0
4.283769395E0;1.654180884E-1;-3.092203140E-1;-1.749182224E0
4.300435385E0;-2.078101039E-1;1.258084774E-1;-1.958008766E0
4.317101374E0;-4.487221241E-1;2.874991894E-1;-2.162709713E0
4.333767364E0;-2.909843326E-1;3.184485435E-1;-2.254231930E0
4.350433353E0;-6.215357780E-2;1.950387955E-1;-2.093972683E0
4.367099343E0;6.769239902E-2;4.018471241E-1;-1.930119514E0
4.383765333E0;4.469024539E-1;5.641188622E-1;-1.696562767E0
4.400431322E0;6.199597120E-1;4.430177212E-1;-1.538026810E0
4.417097312E0;7.354741096E-1;4.044344425E-1;-6.767988205E-1
4.433763301E0;6.452077627E-1;1.481747627E-2;4.001874924E-1
4.450429291E0;6.428720951E-1;-1.922061443E-1;1.294428825E0
4.467095280E0;5.095525980E-1;-1.428222656E-2;1.732875824E0
4.483761270E0;-9.437869489E-2;7.951486111E-1;8.457937241E-1
4.500427260E0;-5.503620505E-1;1.433356047E0;-6.148614883E-1
4.517093249E0;-9.675968885E-1;1.933181524E0;-1.712350845E0
4.533759239E0;-7.241374254E-1;2.129344940E0;-1.566116810E0
4.550425228E0;1.178480834E-1;1.847042322E0;-8.359470367E-1
4.567091218E0;2.848071456E-1;1.264784336E0;8.066177368E-2
4.583757208E0;-1.316031814E-1;9.084303379E-1;5.560817719E-1
4.600423197E0;-6.166021824E-1;1.035335064E0;8.211050034E-1
4.617089187E0;-1.336564541E0;1.196273804E0;1.469590187E0
4.633755176E0;-1.211126924E0;1.315874815E0;2.623578072E0
4.650421166E0;-1.132040620E0;1.002520561E0;3.861046791E0
4.667087155E0;-1.008305550E0;8.062481880E-2;5.303585052E0
4.683753145E0;-6.189067960E-1;-1.131279945E0;5.930648804E0
4.700419135E0;-7.880308628E-1;-1.569113731E0;5.346982956E0
4.717085124E0;-7.323865891E-1;-2.129666805E0;3.991271973E0
4.733751114E0;-3.871148229E-1;-1.830593824E0;1.607743263E0
4.750417103E0;-6.499218345E-1;-8.323698044E-1;-2.253808975E-1
4.767083093E0;-6.462371349E-1;-5.001857281E-1;-1.624299526E0
4.783749083E0;-8.300670981E-1;-6.057641506E-1;-1.862709522E0
4.800415072E0;-8.834192157E-1;-8.930721283E-1;-1.381313324E0
4.817081062E0;-8.400471807E-1;-1.219600916E0;-7.461042404E-1
4.833747051E0;-4.395432472E-1;-1.397080183E0;-4.743709564E-1
4.850413041E0;-9.676478058E-2;-1.073852539E0;-1.160407066E0
4.867079030E0;8.663548529E-2;-6.621687412E-1;-2.304841042E0
4.883745020E0;8.798664808E-1;-1.216476440E0;-3.183115005E0
4.900411010E0;9.379037619E-1;-1.436385155E0;-3.457139969E0
4.917076999E0;4.330453277E-2;-8.329765797E-1;-3.246030807E0
4.933742989E0;-7.928054929E-1;1.652390957E-1;-2.936511993E0
4.950408978E0;-4.160057306E-1;2.690081596E-1;-2.519967556E0
4.967074968E0;5.684391856E-1;-6.642816067E-1;-2.336140156E0
4.983740958E0;6.240171790E-1;-4.858441353E-1;-1.636595726E0
5.000406947E0;5.293837786E-1;-2.867021561E-1;-1.451993465E0
5.017072937E0;4.005177021E-1;-3.348486423E-1;-1.196330070E0
5.033738926E0;2.485176325E-1;-3.342037201E-1;-9.968757629E-1
5.050404916E0;-6.333124638E-2;2.635815144E-1;-7.767734528E-1
5.067070905E0;8.187347651E-2;6.895635128E-1;-8.755435944E-1
5.083736895E0;5.116730332E-1;6.156096458E-1;-3.497285843E-1
5.241162345E0;0.000000000E0;0.000000000E0;0.000000000E0
5.257828334E0;-5.258555412E-1;-2.169520855E-1;-4.546942711E-1
5.274494324E0;2.780641913E-1;-3.616113663E-1;-8.098139763E-1
5.291160313E0;1.459450126E0;-4.491581917E-1;-9.945111275E-1
5.307826303E0;1.946220040E0;-5.166141987E-1;-1.174955845E0
5.324492293E0;1.403872490E0;-1.189129353E-1;-9.888772964E-1
5.341158282E0;1.097926140E0;1.049969196E-1;-6.936769485E-1
5.357824272E0;7.823114395E-1;2.980871201E-1;-6.490159035E-1
5.374490261E0;7.558631897E-1;3.415255547E-1;-7.392983437E-1
5.391156251E0;9.390184879E-1;4.448838234E-1;-7.087826729E-1
5.407822240E0;1.279463291E0;5.289080143E-1;-5.791254044E-1
5.424488230E0;1.059650421E0;9.544119835E-1;-5.625529289E-1
5.441154220E0;-6.463921070E-1;1.530528784E0;-4.606747627E-1
5.457820209E0;-1.500909448E0;2.195010424E0;2.334690094E-1
5.474486199E0;-1.147171021E0;2.454383135E0;7.611598969E-1
5.491152188E0;4.658372402E-1;1.166184664E0;1.098317623E0
5.507818178E0;6.837399006E-1;4.071195126E-1;9.682273865E-1
5.524484168E0;6.319069862E-1;7.304925919E-1;7.560548782E-1
5.541150157E0;4.808309078E-1;1.130018711E0;7.632093430E-1
5.557816147E0;5.836849213E-1;1.012449265E0;7.564220428E-1
5.574482136E0;1.100698471E0;1.086404324E0;8.769025803E-1
5.591148126E0;1.521392584E0;9.622397423E-1;1.132783890E0
5.607814115E0;1.198619366E0;6.758599281E-1;1.498491764E0
5.624480105E0;1.043676138E0;7.584543228E-1;2.217321873E0
5.641146095E0;5.829215050E-1;1.498645782E0;3.128883362E0
5.657812084E0;5.275325775E-1;2.157872200E0;3.540318966E0
5.674478074E0;1.360586405E0;1.647508144E0;2.953654766E0
5.691144063E0;1.874096870E0;7.252635956E-1;2.511136055E0
5.707810053E0;2.116353035E0;4.281964302E-1;1.935144901E0
5.724476043E0;1.781237841E0;5.302324295E-1;2.171156883E0
5.741142032E0;1.386226416E0;3.868772984E-1;3.405144691E0
5.757808022E0;1.326206684E0;-6.761577129E-1;4.830351830E0
5.774474011E0;1.065715790E0;-2.270050764E0;4.074848175E0
5.791140001E0;8.000016212E-1;-2.389735222E0;2.486750603E0
5.807805990E0;7.290842533E-1;-1.852979302E0;1.296483040E0
5.824471980E0;2.993283272E-1;-1.311374545E0;9.829883575E-1
5.841137970E0;1.612565517E-1;-1.275133729E0;2.781677246E-1
5.857803959E0;-5.319976807E-2;-1.525025129E0;-6.865129471E-1
5.874469949E0;-1.794788837E-1;-1.809408307E0;-1.852272034E0
5.891135938E0;3.902051449E-1;-1.888803124E0;-1.881783485E0
5.907801928E0;1.273076534E-1;-1.372612357E0;-1.164731026E0
5.924467918E0;-5.505802631E-1;-1.020089984E0;-2.047927380E0
5.941133907E0;-1.306289077E0;-1.137252450E0;-1.840769291E0
5.957799897E0;-8.052637577E-1;-7.854802608E-1;-3.217729568E0
5.974465886E0;-8.711295128E-1;-3.856980801E-2;-2.991192818E0
5.991131876E0;-1.253508806E0;8.312340975E-1;-1.929194927E0
6.007797865E0;-1.018316746E-1;6.695317030E-1;-1.547183990E0
6.024463855E0;1.305888891E0;1.781376600E-1;-1.148516655E0
6.041129845E0;1.666454077E0;4.462195635E-1;6.652393341E-1
6.057795834E0;1.393387079E0;2.927712202E-1;-2.396387577E0
6.074461824E0;1.166675210E0;7.259432673E-1;-2.417948723E0
6.091127813E0;2.204695463E0;5.286639929E-1;-1.601708412E0
6.107793803E0;1.339719892E0;-5.918455720E-1;-5.943536758E-1
6.124459793E0;1.249647021E0;-1.356955767E0;1.620291710E0
6.141125782E0;2.053112507E0;-1.608632088E0;1.601299286E0
6.157791772E0;1.623925209E0;-1.715633869E0;8.600606918E-1
6.174457761E0;1.841280460E-1;-1.412556887E0;2.176284790E-2
6.191123751E0;-1.449379563E0;6.177350283E-1;-5.013160706E-1
6.207789740E0;-8.406465054E-1;3.251869678E0;-1.045931339E0
6.224455730E0;6.209001541E-1;3.104867697E0;4.698095322E-1
6.241121720E0;7.645939589E-1;3.752010107E0;2.522983551E-1
6.257787709E0;6.266191006E-1;4.321061134E0;2.162788391E0
6.274453699E0;1.009787321E0;3.322608232E0;2.994277954E0
6.291119688E0;1.725599527E0;1.436655760E0;3.903440475E0
6.307785678E0;1.734332085E0;8.981075287E-1;4.540799141E0
6.324451668E0;2.089701653E0;1.022348166E0;3.531079292E0
6.341117657E0;1.500725150E0;1.147554159E0;7.723245621E-1
6.357783647E0;1.950032711E-1;1.415911913E0;-3.271827698E-1
6.374449636E0;-6.624888182E-1;1.746254206E0;7.118406296E-1
6.391115626E0;1.832227230E0;-1.130656958E0;1.013026237E0
6.407781615E0;8.733382225E-1;-9.465396404E-1;1.348412514E0
6.424447605E0;-2.549977303E0;-3.863730431E-1;2.400446892E0
6.441113595E0;-2.602372169E0;-1.491721869E0;2.652283669E0
6.457779584E0;-1.060045481E0;-2.868731499E0;1.209402084E0
6.474445574E0;-1.311809540E0;-2.487705708E0;-2.225856781E-1
6.491111563E0;-2.892072678E0;-2.009123564E0;-7.891802788E-1
6.507777553E0;-3.434045553E0;-1.501443863E0;-1.306668758E0
6.524443543E0;-1.932372808E0;-2.743286610E0;-1.273714542E0
6.541109532E0;-2.734002352E0;-3.273311377E0;-1.197290421E-2
6.557775522E0;-3.554100037E0;-3.585913658E0;-2.546815872E-1
6.574441511E0;-3.729014158E0;-3.409271717E0;-2.975998878E0
6.591107501E0;-3.320052385E0;-3.378485680E0;-4.728891850E0
6.607773490E0;-2.494304180E0;-2.810258389E0;-4.056602001E0
6.624439480E0;-2.115375996E0;-2.834224224E0;-1.541006565E0
6.641105470E0;-1.880796432E0;-2.671804905E0;-2.241506577E-1
6.657771459E0;-2.033998489E0;-2.272132397E0;-1.263755560E0
6.674437449E0;-2.607388496E0;-1.945025206E0;-2.669673920E0
6.691103438E0;-2.629456520E0;-2.165042877E0;-3.285401821E0
6.707769428E0;-3.281588554E0;-2.209415197E0;-2.829476357E0
6.724435418E0;-2.800533295E0;-2.350035191E0;-2.653829813E0
6.741101407E0;-1.800733566E0;-2.695967197E0;-2.278702259E0
6.757767397E0;-9.032459259E-1;-2.752367973E0;-9.818524122E-1
6.774433386E0;-7.443032265E-1;-2.582063913E0;3.301901817E-1
6.791099376E0;-2.402448654E-1;-2.346007824E0;-4.672628641E-1
6.807765365E0;4.730491638E-1;-2.505795479E0;-1.133274078E0
6.824431355E0;1.203565598E0;-2.861629486E0;-2.305386066E-1
6.841097345E0;1.766468048E0;-3.465582132E0;1.369491339E0
6.857763334E0;2.326082230E0;-3.774717808E0;2.881720066E0
6.874429324E0;2.690422058E0;-3.955289841E0;3.171574593E0
6.891095313E0;2.639315605E0;-4.509596825E0;2.605071306E0
6.907761303E0;2.645677567E0;-4.688144684E0;2.471932888E0
6.924427293E0;3.132185936E0;-4.565529823E0;2.278126717E0
6.941093282E0;3.786346436E0;-4.494404316E0;1.881835818E0
6.957759272E0;4.459754467E0;-4.350207806E0;1.520793557E0
6.974425261E0;5.928240776E0;-4.666429043E0;8.214813471E-1
6.991091251E0;6.842432022E0;-5.126757145E0;3.561214209E-1
7.007757240E0;7.268034935E0;-5.017136574E0;1.181210637E0
7.024423230E0;7.780662537E0;-4.957705975E0;2.205246687E0
7.041089220E0;7.782802105E0;-3.520669460E0;3.248231888E0
7.057755209E0;8.208242416E0;-1.805361748E0;3.416839600E0
7.074421199E0;8.506575584E0;1.020197868E-1;3.691495895E0
7.091087188E0;9.078662872E0;1.610788822E0;3.635693550E0
7.107753178E0;8.729692459E0;2.500497818E0;2.501991749E0
7.124419168E0;7.320240021E0;2.971158981E0;1.382203341E0
7.141085157E0;5.580687523E0;3.271154881E0;1.880602241E-1
7.157751147E0;4.240670204E0;3.510389328E0;-1.126606584E0
7.174417136E0;3.159917355E0;3.647827148E0;-2.070528507E0
7.191083126E0;2.256786823E0;3.533989191E0;-2.513344526E0
7.207749115E0;1.158818245E0;3.691141129E0;-2.293367863E0
7.224415105E0;1.457581520E-1;3.697305441E0;-1.700770617E0
7.241081095E0;-5.671119690E-1;3.429601431E0;-4.534513354E-1
7.257747084E0;-9.801049232E-1;3.044450998E0;9.064933658E-1
7.274413074E0;-8.356499672E-1;2.678431988E0;2.284973860E0
7.291079063E0;-6.660127640E-1;2.799807310E0;2.964311600E0
7.307745053E0;-4.574880600E-1;2.732712507E0;2.151744127E0
7.324411043E0;-3.057737350E-1;2.401558399E0;9.092237353E-1
7.341077032E0;-5.180382729E-1;1.918762684E0;-2.097481489E-2
7.357743022E0;-9.539489746E-1;1.377447128E0;-7.835548520E-1
7.374409011E0;-1.003135204E0;4.628930092E-1;-1.536937356E0
7.391075001E0;-9.843611717E-1;-1.095809937E-1;-1.097898483E0
7.407740990E0;-1.158676147E0;-4.357986450E-1;-3.374289870E-1
7.424406980E0;-1.200787067E0;-5.708670616E-1;-7.605290413E-2
7.441072970E0;-1.496748924E0;-2.490301132E-1;-1.776537299E-1
7.457738959E0;-1.068902969E0;-5.564117432E-1;-7.228715420E-1
7.474404949E0;-1.532865524E0;-4.262318611E-1;-9.975001812E-1
7.491070938E0;-2.516812325E0;-4.233283997E-1;-1.363941669E0
7.507736928E0;-2.691911697E0;-8.911375999E-1;-2.255395889E0
7.524402918E0;-2.706586838E0;-1.377517700E0;-2.563937187E0
7.541068907E0;-2.484660149E0;-1.757695198E0;-2.564819813E0
7.557734897E0;-1.834844589E0;-1.915779591E0;-2.752747059E0
7.574400886E0;-1.270219803E0;-1.677308083E0;-2.717220545E0
7.591066876E0;-5.040359497E-1;-1.184395313E0;-2.636437178E0
7.607732865E0;1.873044968E-1;-1.302461147E0;-2.877345800E0
7.624398855E0;4.923739433E-1;-2.006971359E0;-3.264522791E0
7.641064845E0;5.910668373E-1;-2.609053135E0;-2.642914772E0
7.657730834E0;1.353137970E0;-3.535010338E0;-1.503292799E0
7.674396824E0;2.709581852E0;-4.270299435E0;-8.640092611E-2
7.691062813E0;3.807486057E0;-3.853909492E0;1.204688191E0
7.707728803E0;5.598527908E0;-2.938381195E0;2.429452181E0
7.724394793E0;6.615495205E0;-1.056354523E0;2.548369408E0
7.741060782E0;6.594937325E0;7.790465355E-1;1.922088861E0
7.757726772E0;5.683555603E0;1.969201565E0;8.158512712E-1
7.774392761E0;4.433960438E0;2.484926224E0;3.027617931E-3
7.791058751E0;3.571765900E0;2.330496788E0;-3.970279694E-1
7.807724740E0;2.659242153E0;2.240957737E0;-6.995499134E-1
7.824390730E0;2.000868320E0;2.246065140E0;-1.148534775E0
7.841056720E0;1.228558540E0;2.357315540E0;-1.309646606E0
7.857722709E0;6.639113426E-1;2.428636074E0;-9.518864155E-1
7.874388699E0;4.651393890E-1;2.387660027E0;-4.087009430E-1
7.891054688E0;6.936788559E-2;2.175280094E0;1.495473385E-1
7.907720678E0;-1.624817848E-1;1.953004360E0;8.853443265E-1
7.924386668E0;-2.399606705E-1;1.652480602E0;1.429185271E0
7.941052657E0;-4.673066139E-1;1.278578281E0;1.690091014E0
7.957718647E0;-4.574532509E-1;9.397859573E-1;1.826556444E0
7.974384636E0;-5.786323547E-1;6.357259750E-1;1.637586594E0
7.991050626E0;-8.222641945E-1;3.244528770E-1;1.221533537E0
8.007716615E0;-9.001126289E-1;4.056739807E-2;9.093422890E-1
8.024382605E0;-9.249191284E-1;-1.979722977E-1;6.868983507E-1
8.041048595E0;-1.056735992E0;-5.004215240E-1;7.464482784E-1
8.057714584E0;-1.109826565E0;-9.269504547E-1;1.049154043E0
8.074380574E0;-1.213121414E0;-1.335245132E0;1.124428749E0
8.091046563E0;-1.449163437E0;-1.791293621E0;1.064071655E0
8.107712553E0;-1.731292248E0;-2.518920898E0;1.138002872E0
8.124378543E0;-1.689023495E0;-2.958507538E0;1.411545992E0
8.141044532E0;-1.487671375E0;-3.413242817E0;1.640820861E0
8.157710522E0;-1.492484093E0;-3.417413235E0;8.714404106E-1
8.174376511E0;-1.450286865E0;-3.624023914E0;1.321974993E-1
8.191042501E0;-1.796865463E0;-3.706696987E0;-4.791836739E-1
8.207708490E0;-2.284447193E0;-3.727253437E0;-7.215766907E-1
8.224374480E0;-2.364464760E0;-3.879354477E0;-5.952508450E-1
8.241040470E0;-2.403760910E0;-3.868332863E0;-2.924653292E-1
8.257706459E0;-2.469143867E0;-3.667839050E0;-4.531639814E-1
8.274372449E0;-1.988098145E0;-3.645956516E0;-1.255767703E0
8.291038438E0;-1.175197124E0;-3.810832500E0;-2.298831940E0
8.307704428E0;-1.166149616E0;-3.578825951E0;-2.376911640E0
8.324370418E0;-9.106907845E-1;-3.746370792E0;-1.875462532E0
8.341036407E0;-6.042919159E-1;-3.572628975E0;-7.846428156E-1
8.357702397E0;-3.876805305E-1;-3.153223038E0;2.644919157E-1
8.374368386E0;-1.803264618E-1;-2.418969154E0;1.134423137E0
8.391034376E0;5.365762711E-1;-1.732785702E0;1.457752466E0
8.407700365E0;1.032945633E0;-9.801383018E-1;1.151610374E0
8.424366355E0;1.307688713E0;-5.137844086E-1;3.340483904E-1
8.441032345E0;1.428795815E0;1.428937912E-2;-2.846785784E-1
8.457698334E0;1.560947418E0;4.945855141E-1;-8.066630363E-2
8.474364324E0;1.767604828E0;9.501328468E-1;2.087811232E-1
8.491030313E0;1.858048439E0;1.382428169E0;3.287640810E-1
8.507696303E0;1.694047451E0;1.633450031E0;2.096583843E-1
8.524362293E0;1.445506573E0;1.671879768E0;5.901348591E-2
8.541028282E0;6.663007736E-1;2.069325447E0;-2.024004459E-1
8.557694272E0;-1.041345596E-1;2.422600269E0;-5.171566010E-1
8.574360261E0;-8.103814125E-1;2.790128469E0;-2.163279057E-1
8.591026251E0;-1.205398083E0;2.908769608E0;4.107726812E-1
8.607692240E0;-1.425446510E0;2.914849520E0;1.217837691E0
8.624358230E0;-1.547090054E0;2.810602188E0;1.890989065E0
8.641024220E0;-1.618002892E0;2.618369341E0;2.200357676E0
8.657690209E0;-1.306217194E0;2.052973747E0;2.309575796E0
8.674356199E0;-9.011721611E-1;1.585131168E0;2.689916134E0
8.691022188E0;-4.626312256E-1;1.389666080E0;2.539581299E0
8.707688178E0;7.918024063E-2;1.213645458E0;1.468333721E0
8.724354168E0;4.400396347E-1;1.288531303E0;1.115523577E-1
8.741020157E0;1.151781082E-1;1.440150738E0;-1.093057990E0
8.757686147E0;-3.806338310E-1;1.212655067E0;-1.544395447E0
8.774352136E0;-6.332416534E-1;1.019949913E0;-9.913144112E-1
8.791018126E0;-4.327249527E-1;6.460747719E-1;-6.673862934E-1
8.807684115E0;-1.404948235E-1;2.794542313E-1;-1.037449360E0
8.824350105E0;4.429454803E-1;-1.472153664E-1;-1.668402910E0
8.841016095E0;8.894114494E-1;-4.747223854E-1;-2.168366194E0
8.857682084E0;1.529856682E0;-1.004860878E0;-2.369550228E0
8.874348074E0;1.974102497E0;-9.904441833E-1;-2.106350422E0
8.891014063E0;2.569545269E0;-5.969586372E-1;-2.050526142E0
8.907680053E0;3.444563389E0;-7.039041519E-1;-2.739987612E0
8.924346043E0;3.844983578E0;-1.158502102E0;-3.328176260E0
8.941012032E0;3.990784645E0;-1.777758121E0;-3.541646004E0
8.957678022E0;4.517169476E0;-2.469349861E0;-2.526076317E0
8.974344011E0;4.883770943E0;-2.788766861E0;-1.173774838E0
8.991010001E0;5.361560822E0;-2.301850319E0;5.119621754E-2
9.007675990E0;5.640983105E0;-1.138798714E0;4.616940618E-1
9.024341980E0;5.468698978E0;1.229438782E-1;1.685025692E-1
9.041007970E0;4.776083469E0;1.166508198E0;-2.256838083E-1
9.057673959E0;3.939055443E0;1.799775124E0;-2.206565142E-1
9.074339949E0;3.154905319E0;1.963333130E0;4.561793804E-2
9.091005938E0;2.432719707E0;1.982665539E0;2.820445299E-1
9.107671928E0;1.772208214E0;1.902604103E0;2.599276304E-1
9.124337918E0;1.355205536E0;1.538709641E0;1.509854794E-1
9.141003907E0;8.285121918E-1;1.226872444E0;5.527302027E-1
9.157669897E0;2.303490639E-1;1.144729614E0;1.285035610E0
9.174335886E0;-1.955480576E-1;1.233861446E0;1.851733565E0
9.191001876E0;-5.077104568E-1;1.393215656E0;2.532342911E0
9.207667865E0;-6.396760941E-1;1.585313797E0;2.979058743E0
9.224333855E0;-7.205104828E-1;1.676243305E0;2.958186626E0
9.240999845E0;-8.354229927E-1;1.584706783E0;2.704115868E0
9.257665834E0;-1.031285763E0;1.260160923E0;2.383835554E0
9.274331824E0;-1.235344887E0;8.982949257E-1;2.304038763E0
9.290997813E0;-1.427369595E0;4.000325203E-1;2.258484125E0
9.307663803E0;-1.794847488E0;-5.234956741E-2;2.030785799E0
9.324329793E0;-2.022701263E0;-3.709421158E-1;1.838953018E0
9.340995782E0;-2.022199154E0;-6.466035843E-1;1.898767948E0
9.357661772E0;-1.990127087E0;-9.057326317E-1;2.130305052E0
9.374327761E0;-2.126677990E0;-1.250207424E0;2.672394276E0
9.390993751E0;-1.930951118E0;-1.561065197E0;3.222483635E0
9.407659740E0;-1.924985886E0;-1.802957058E0;3.720826387E0
9.424325730E0;-1.773082256E0;-1.995956898E0;3.293926716E0
9.440991720E0;-1.889043808E0;-2.265574932E0;2.321550369E0
9.457657709E0;-1.991007805E0;-2.535211563E0;1.484174728E0
9.474323699E0;-1.770310879E0;-3.001067638E0;7.723951340E-1
9.490989688E0;-1.455470085E0;-3.161359310E0;4.409123659E-1
9.507655678E0;-1.211085320E0;-3.057006836E0;5.231521130E-1
9.524321668E0;-1.105487347E0;-2.924586773E0;5.034223795E-1
9.540987657E0;-9.146122932E-1;-2.790754795E0;2.629482746E-1
9.557653647E0;-5.646514893E-1;-2.944917679E0;-1.981325150E-1
9.574319636E0;6.704807281E-2;-3.561289787E0;-1.077520132E0
9.590985626E0;3.256444931E-1;-3.626269817E0;-1.310544729E0
9.607651615E0;4.682216644E-1;-3.539175034E0;-9.851350784E-1
9.624317605E0;1.302366257E-1;-3.082921028E0;-6.788594723E-1
9.640983595E0;-2.225632668E-1;-2.345709801E0;-4.527113438E-1
9.657649584E0;-2.349538803E-1;-1.780232430E0;-3.763194084E-1
9.674315574E0;-2.182254791E-1;-1.149070263E0;-5.428254604E-1
9.690981563E0;4.329109192E-2;-8.094453812E-1;-6.636526585E-1
9.707647553E0;5.006942749E-1;-4.690337181E-1;-6.024718285E-1
9.724313543E0;1.053098202E0;-2.046718597E-1;-4.567797184E-1
9.740979532E0;1.413548946E0;7.611751556E-2;-4.018986225E-1
9.757645522E0;1.657072544E0;3.827676773E-1;-7.475477457E-1
9.774311511E0;1.867049217E0;5.934376717E-1;-1.094782829E0
9.790977501E0;1.787291050E0;9.153666496E-1;-1.197507977E0
9.807643490E0;1.379032612E0;1.213572502E0;-1.282713413E0
9.824309480E0;6.723198891E-1;1.433953762E0;-1.152580976E0
9.840975470E0;-2.956962585E-2;1.690090656E0;-6.186780930E-1
9.857641459E0;-6.346120834E-1;1.930012703E0;-1.151356697E-1
9.874307449E0;-1.142277718E0;2.039805412E0;1.927386522E-1
9.890973438E0;-1.406901360E0;1.959370136E0;5.005615950E-1
9.907639428E0;-1.858182430E0;1.921709538E0;6.355077028E-1
9.924305418E0;-2.261876583E0;1.899757862E0;6.557295322E-1
9.940971407E0;-2.429385185E0;1.722689629E0;7.485011816E-1
9.957637397E0;-2.497559547E0;1.459641457E0;8.706212044E-1
9.974303386E0;-2.585330009E0;1.029720783E0;9.557357430E-1
9.990969376E0;-2.498433113E0;4.676189423E-1;1.129184008E0
1.000763536E1;-2.059871674E0;1.798977852E-1;1.325247884E0
1.002430136E1;-1.640182018E0;3.293986320E-1;1.409868121E0
1.004096734E1;-1.022668362E0;4.200639725E-1;1.264208794E0
1.005763333E1;-5.388393402E-1;6.504664421E-1;7.283440232E-1
1.007429932E1;-3.967342377E-1;8.981294632E-1;-2.437031269E-1
1.009096531E1;-1.437625885E-1;8.894791603E-1;-8.085337877E-1
1.010763130E1;3.209071159E-1;6.768932343E-1;-9.387502670E-1
1.012429729E1;9.689807892E-1;2.328791618E-1;-7.976444960E-1
1.014096328E1;1.564688683E0;-2.625560760E-1;-7.999616861E-1
1.015762927E1;2.226459503E0;-6.271390915E-1;-1.113300562E0
1.017429526E1;3.030593872E0;-5.074667931E-1;-1.248434186E0
1.019096125E1;3.532573700E0;2.167510986E-2;-1.307292700E0
1.020762724E1;3.544295788E0;5.178790092E-1;-1.631905794E0
1.022429323E1;3.650724411E0;3.774209023E-1;-2.352985859E0
1.024095922E1;3.587224960E0;-1.257748604E-1;-2.544768810E0
1.025762521E1;3.642496586E0;-6.286106110E-1;-2.040495634E0
1.027429120E1;3.992980957E0;-1.554022312E0;-1.526287675E0
1.029095719E1;4.467191219E0;-2.240057945E0;-3.625015020E-1
1.030762318E1;5.150508404E0;-2.364897251E0;9.672581553E-1
1.032428917E1;5.689753532E0;-1.081276894E0;1.769863129E0
1.034095516E1;5.991908073E0;8.227119446E-1;1.389655590E0
1.035762115E1;6.073021412E0;2.313174248E0;-7.772207260E-2
1.037428714E1;5.316287994E0;3.063633919E0;-1.758502841E0
1.039095313E1;4.315023422E0;2.990354538E0;-2.884141922E0
1.040761912E1;3.601606369E0;2.583010674E0;-3.123237371E0
1.042428510E1;3.227413654E0;2.287244797E0;-2.757585049E0
1.044095109E1;2.997695923E0;2.219592094E0;-2.082949638E0
1.045761708E1;2.701539040E0;2.267440319E0;-1.063733578E0
1.047428307E1;2.126386642E0;2.431573868E0;-2.555005550E-1
1.049094906E1;1.585837364E0;2.539562225E0;4.159965515E-1
1.050761505E1;1.081672192E0;2.545254230E0;1.222658396E0
1.052428104E1;6.511158943E-1;2.423072338E0;1.761090517E0
1.054094703E1;4.786343575E-1;2.060765266E0;1.987188339E0
1.055761302E1;2.819809914E-1;1.719822884E0;2.188465834E0
1.057427901E1;2.265834808E-2;1.220329762E0;2.283490419E0
1.059094500E1;-2.469444275E-1;7.988452911E-1;2.605161190E0
1.060761099E1;-3.588910103E-1;3.667163849E-1;3.053001404E0
1.062427698E1;-2.648854256E-1;-6.514263153E-2;3.495745182E0
1.064094297E1;-8.220767975E-2;-4.616680145E-1;3.935279369E0
1.065760896E1;1.485872269E-1;-8.067464828E-1;4.358525276E0
1.067427495E1;3.594689369E-1;-1.036743641E0;4.714404583E0
1.069094094E1;6.246204376E-1;-1.289911747E0;4.782864571E0
1.070760693E1;7.150521278E-1;-1.732581615E0;4.761478424E0
1.072427292E1;3.513398170E-1;-2.318975925E0;4.559603691E0
1.074093891E1;1.175990105E-1;-2.756383896E0;4.759259701E0
1.075760490E1;3.743300438E-1;-3.221260071E0;4.450119972E0
1.077427089E1;1.145038605E-1;-3.534305096E0;3.862905025E0
1.079093688E1;-2.404198647E-1;-3.797294140E0;3.589975595E0
1.080760286E1;-6.170959473E-1;-3.970099449E0;3.806809664E0
1.082426886E1;-1.032833576E0;-4.092018127E0;4.180312157E0
1.084093484E1;-1.536454678E0;-4.104661942E0;4.223868847E0
1.085760083E1;-1.896695137E0;-4.097781181E0;3.829843283E0
1.087426682E1;-1.189661503E0;-4.654094219E0;2.719161749E0
1.089093281E1;2.906122208E-1;-5.219564915E0;1.261286736E0
1.090759880E1;9.962854385E-1;-5.319086552E0;-3.205628395E-1
1.092426479E1;-1.306795120E0;-4.447134495E0;-2.784912586E0
1.094093078E1;-4.389265060E0;-3.453235865E0;-4.925887108E0
1.095759677E1;-4.860232830E0;-3.043553829E0;-5.270682812E0
1.097426276E1;-3.991275787E0;-2.475222111E0;-2.512637138E0
1.099092875E1;-2.468731880E0;-2.652351141E0;-4.795818329E-1
1.100759474E1;-1.882096291E0;-2.772348404E0;5.754483938E-1
1.102426073E1;-2.276165485E0;-2.622312069E0;7.169427872E-1
1.104092672E1;-2.480895519E0;-2.371537209E0;3.719331622E-1
1.105759271E1;-1.895791054E0;-2.032892227E0;1.353923082E-1
1.107425870E1;-8.370370865E-1;-1.886099815E0;-6.094464064E-1
1.109092469E1;-4.732542038E-1;-1.203798771E0;-1.350507855E0
1.110759068E1;-3.974037170E-1;-4.691677094E-1;-2.139678717E0
1.112425667E1;-5.345845222E-1;2.699284554E-1;-2.488291502E0
1.114092266E1;-8.154554367E-1;9.061679840E-1;-2.370795488E0
1.115758865E1;-7.241230011E-1;1.283298016E0;-1.536305785E0
1.117425464E1;-6.969370842E-1;1.511298656E0;-7.410931587E-1
1.119092063E1;-7.070569992E-1;1.497523308E0;-2.374668121E-1
1.120758662E1;-6.914477348E-1;1.436048031E0;3.125797510E-1
1.122425260E1;-4.723005295E-1;1.380826473E0;6.802972555E-1
1.124091860E1;4.720163345E-2;1.250612259E0;6.842158437E-1
1.125758458E1;6.144313812E-1;1.195213795E0;7.382766604E-1
1.127425057E1;1.188124657E0;1.103316784E0;5.494672656E-1
1.129091656E1;1.506460190E0;1.255871773E0;5.294116139E-1
1.130758255E1;2.015790462E0;1.561381817E0;1.730574369E-1
1.132424854E1;2.184018135E0;1.934966564E0;-4.212838411E-1
1.134091453E1;2.277770996E0;2.060245514E0;-9.768291712E-1
1.135758052E1;2.299790382E0;2.127808094E0;-1.291968346E0
1.137424651E1;2.332150459E0;2.124167919E0;-1.615870118E0
1.139091250E1;2.289364815E0;2.006001949E0;-1.587711215E0
1.140757849E1;2.552101612E0;1.803710938E0;-1.246266127E0
1.142424448E1;3.439690590E0;1.526056767E0;-5.518207550E-1
1.144091047E1;4.341303349E0;1.505216122E0;2.052425146E-1
1.145757646E1;4.908191204E0;1.898441792E0;3.296357989E-1
1.147424245E1;5.192173958E0;2.308166504E0;-1.515953541E-1
1.149090844E1;5.446600914E0;2.215904236E0;-6.919660568E-1
1.150757443E1;5.491482258E0;1.279328346E0;-8.933666945E-1
1.152424042E1;5.352687359E0;3.963184357E-2;-4.783556461E-1
1.154090641E1;5.211940289E0;-9.964103699E-1;2.192747593E-1
1.155757240E1;5.877890110E0;-1.731134415E0;1.602119565E0
1.157423839E1;6.918768406E0;-1.531349659E0;3.141140223E0
1.159090438E1;7.321605206E0;-3.526182175E-1;3.473877668E0
1.160757036E1;7.099596500E0;9.260125160E-1;3.028700352E0
1.162423636E1;6.057922840E0;1.675745964E0;2.094644547E0
1.164090234E1;4.247567177E0;1.678461552E0;1.451362610E0
1.165756833E1;2.637692451E0;1.088517666E0;1.402030706E0
1.167423432E1;1.351632595E0;3.306584358E-1;1.773100853E0
1.169090031E1;4.435572624E-1;-3.525462151E-1;2.030628920E0
1.170756630E1;2.380466461E-2;-5.748333931E-1;2.212188005E0
1.172423229E1;-1.139616966E-1;-4.172325134E-1;2.300179482E0
1.174089828E1;-1.686048508E-1;-8.970737457E-3;2.142345428E0
1.175756427E1;-5.063791275E-1;3.970499039E-1;1.606217980E0
1.177423026E1;-9.305601120E-1;6.672525406E-1;8.589102030E-1
1.179089625E1;-1.300063133E0;7.785701752E-1;2.167611122E-1
1.180756224E1;-1.682033539E0;6.979575157E-1;-6.503105164E-3
1.182422823E1;-1.926664352E0;4.712085724E-1;2.195200920E-1
1.184089422E1;-1.877282143E0;5.287885666E-2;8.656085730E-1
1.185756021E1;-1.850859165E0;-3.881192207E-1;1.766901970E0
1.187422620E1;-1.810758114E0;-9.322433472E-1;2.396430492E0
1.189089219E1;-1.913605213E0;-1.427309990E0;2.660470724E0
1.190755818E1;-1.913240910E0;-1.794680119E0;2.776274681E0
1.192422417E1;-2.711713314E0;-1.819438696E0;2.812319040E0
1.194089016E1;-2.741165638E0;-2.047879219E0;3.252876997E0
1.195755615E1;-2.513051033E0;-2.279441118E0;3.900877476E0
1.197422214E1;-2.281072140E0;-2.868835688E0;3.958252668E0
1.199088813E1;-2.407170296E0;-3.682882547E0;3.161717653E0
1.200755412E1;-2.729513168E0;-4.185054779E0;2.739938736E0
1.202422011E1;-3.194419861E0;-4.445848465E0;2.811156511E0
1.204088610E1;-3.480073929E0;-4.598476410E0;3.073994637E0
1.205755208E1;-3.491541862E0;-4.773259163E0;3.575818062E0
1.207421807E1;-3.517006874E0;-4.799942970E0;4.058027744E0
1.209088406E1;-3.503043652E0;-4.610949039E0;3.882274628E0
1.210755005E1;-3.412597179E0;-4.622145653E0;2.871519804E0
1.212421604E1;-3.463921070E0;-5.349271774E0;1.113172293E0
1.214088203E1;-2.966857910E0;-6.248274326E0;-8.289909363E-1
1.215754802E1;-9.262270927E-1;-6.688859940E0;-1.474194765E0
1.217421401E1;1.103223801E0;-6.788006783E0;-1.017838955E0
1.219088000E1;1.038128853E0;-6.204303741E0;9.471869469E-2
1.220754599E1;7.500286102E-1;-5.860497952E0;6.779291630E-1
1.222421198E1;6.284942627E-1;-5.084337711E0;1.286913753E0
1.224087797E1;1.245405197E0;-3.995080948E0;9.031133652E-1
1.225754396E1;2.576880932E0;-3.039249897E0;-7.135574818E-1
1.227420995E1;3.447404861E0;-1.797566891E0;-2.332639456E0
1.229087594E1;3.265527248E0;-5.328617096E-1;-3.510946512E0
1.230754193E1;2.903300285E0;2.712197304E-1;-4.338684082E0
1.232420792E1;2.256959438E0;9.567070007E-1;-4.505898476E0
1.234087391E1;1.195368290E0;1.426946640E0;-4.087346077E0
1.235753990E1;8.316798210E-1;1.584187031E0;-3.063182831E0
1.237420589E1;5.472378731E-1;1.752210617E0;-1.927178025E0
1.239087188E1;1.548614502E-1;1.946410656E0;-1.087936521E0
1.240753786E1;-5.712151527E-1;2.289958000E0;-5.012756586E-1
1.242420386E1;-1.059676170E0;2.636373520E0;-3.981769085E-2
1.244086985E1;-1.468825340E0;2.944293022E0;5.209474564E-1
1.245753583E1;-1.515872002E0;2.906411171E0;8.291714191E-1
1.247420182E1;-1.727926731E0;2.906265259E0;7.571994662E-1
1.249086781E1;-2.188903809E0;2.717397213E0;2.457369566E-1
1.250753380E1;-2.109251022E0;2.567419529E0;-2.300345898E-2
1.252419979E1;-1.339898109E0;2.572880745E0;4.323432446E-1
1.254086578E1;-5.654020309E-1;2.492355347E0;9.456168413E-1
1.255753177E1;-1.148872375E-1;2.459777355E0;1.091359854E0
1.257419776E1;1.282992363E-1;2.029577255E0;1.141423941E0
1.259086375E1;3.102369308E-1;1.322663784E0;1.276116729E0
1.260752974E1;6.343483925E-1;9.978637695E-1;1.946858287E0
1.262419573E1;1.743111610E0;8.441109657E-1;2.234948158E0
1.264086172E1;2.961756229E0;8.390989304E-1;1.912555933E0
1.265752771E1;3.705306053E0;1.094129086E0;1.209330320E0
1.267419370E1;4.106842518E0;1.013062954E0;2.228919268E-1
1.269085969E1;4.347162724E0;7.355351448E-1;-6.910412312E-1
1.270752568E1;5.024466991E0;4.581274986E-1;-1.563683271E0
1.272419167E1;5.517684460E0;4.172353745E-1;-2.262686729E0
1.274085766E1;5.560400009E0;5.541267395E-1;-3.249246597E0
1.275752365E1;5.102354050E0;9.170527458E-1;-4.436620235E0
1.277418964E1;4.794894695E0;9.645385742E-1;-5.656260014E0
1.279085563E1;4.226952076E0;3.386535645E-1;-6.369431496E0
1.280752162E1;3.335147858E0;-3.247575760E-1;-5.908892155E0
1.282418760E1;3.326096058E0;-1.076165199E0;-4.597582817E0
1.284085360E1;3.945679188E0;-1.483983994E0;-2.894434452E0
1.285751958E1;5.088954926E0;-1.160560608E0;-1.168980837E0
1.287418557E1;6.173624516E0;-5.523929596E-1;-3.946693540E-1
1.289085156E1;6.453662395E0;5.120410919E-1;-1.638087630E-1
1.290751755E1;5.764899731E0;8.773622513E-1;-5.818674564E-1
1.292418354E1;4.677534580E0;8.908686638E-1;-1.008535862E0
1.294084953E1;3.654632092E0;5.146250725E-1;-1.152261496E0
1.295751552E1;2.869264126E0;1.642971039E-1;-4.973198175E-1
1.297418151E1;2.427728176E0;-1.565914154E-1;2.262328863E-1
1.299084750E1;2.010847569E0;-1.774764061E-1;9.675291777E-1
1.300751349E1;1.571720600E0;-1.548895836E-1;1.534074783E0
1.302417948E1;9.072117805E-1;-7.752466202E-2;2.064767361E0
1.304084547E1;2.901844978E-1;9.071254730E-2;2.519752979E0
1.305751146E1;-1.571803093E-1;1.247425079E-1;2.455263138E0
1.307417745E1;-4.728903770E-1;1.747808456E-1;2.473476648E0
1.309084344E1;-8.155803680E-1;5.635213852E-2;2.467976093E0
1.310750943E1;-1.039954185E0;-2.040586472E-1;2.598322630E0
1.312417542E1;-1.338172913E0;-5.478086472E-1;2.878517866E0
1.314084141E1;-1.650118351E0;-1.001821995E0;3.135587692E0
1.315750740E1;-1.935876369E0;-1.556639194E0;3.172541857E0
1.317417339E1;-2.303184986E0;-2.118123055E0;3.013046980E0
1.319083938E1;-2.806993008E0;-2.601313591E0;2.744130373E0
1.320750537E1;-3.114777565E0;-2.992864370E0;3.574640036E0
1.322417136E1;-3.022576332E0;-3.132417917E0;4.096282959E0
1.324083735E1;-3.241579056E0;-3.284213543E0;4.428844929E0
1.325750333E1;-3.458033085E0;-3.428637981E0;4.680233002E0
1.327416932E1;-3.658363819E0;-3.590560198E0;4.560482502E0
1.329083531E1;-3.891314030E0;-3.656650305E0;3.875604630E0
1.330750130E1;-4.096628189E0;-3.825039864E0;3.245600700E0
1.332416729E1;-4.502022266E0;-4.068984985E0;2.835883856E0
1.334083328E1;-4.623434544E0;-4.361865520E0;2.740264893E0
1.335749927E1;-4.496000290E0;-4.545915127E0;2.891055584E0
1.337416526E1;-4.407065868E0;-4.683037758E0;2.487898111E0
1.339083125E1;-4.042126179E0;-4.673235893E0;1.615670323E0
1.340749724E1;-3.092118263E0;-5.205600739E0;2.696514130E-3
1.342416323E1;-1.794719696E0;-6.013607025E0;-1.826546669E0
1.344082922E1;-1.286827087E0;-6.384302616E0;-3.886660099E0
1.345749521E1;-1.323443890E0;-6.594114780E0;-4.870428085E0
1.347416120E1;-1.065654278E0;-6.738984108E0;-3.391188145E0
1.349082719E1;-7.266907692E-1;-6.689632893E0;-8.406281471E-1
1.350749318E1;-7.625350952E-1;-6.010388851E0;1.228058696E0
1.352415917E1;-8.688588142E-1;-5.022425175E0;1.832734585E0
1.354082516E1;-5.672192574E-1;-4.354627132E0;1.373343349E0
1.355749115E1;4.375996590E-1;-3.584343433E0;1.217309594E0
1.357415714E1;1.603334427E0;-2.675621986E0;6.696697474E-1
1.359082313E1;2.656801701E0;-1.829072952E0;-1.159942150E-1
1.360748912E1;3.311944008E0;-7.506461143E-1;-1.638938904E0
1.362415510E1;3.347709656E0;4.753279686E-1;-4.044554710E0
1.364082110E1;2.841100216E0;1.496833801E0;-6.319544792E0
1.365748708E1;1.958499432E0;2.171971798E0;-6.747524261E0
1.367415307E1;9.947361946E-1;2.332275867E0;-4.813836575E0
1.369081906E1;-3.829097748E-2;2.062740803E0;-1.701738358E0
1.370748505E1;-7.150192261E-1;1.626355648E0;9.697257280E-1
1.372415104E1;-7.887287140E-1;1.436926365E0;3.060720921E0
1.374081703E1;-6.490149498E-1;1.856545925E0;4.195982933E0
1.375748302E1;-1.931190491E-1;2.011209011E0;3.989059925E0
1.377414901E1;2.781977654E-1;1.823947906E0;3.810988903E0
1.379081500E1;7.427115440E-1;1.455895901E0;3.898111343E0
1.380748099E1;1.278045177E0;1.066565037E0;3.934742928E0
1.382414698E1;1.525800228E0;6.898756027E-1;3.779998779E0
1.384081297E1;1.618228436E0;6.052680016E-1;3.903314590E0
1.385747896E1;1.944435120E0;1.091270924E0;4.129990101E0
1.387414495E1;2.757568359E0;1.781727791E0;4.119071960E0
1.389081094E1;3.449889660E0;2.747496128E0;3.420375109E0
1.390747693E1;3.617031574E0;3.414672613E0;2.483642817E0
1.392414292E1;3.231722832E0;3.755650759E0;1.807284117E0
1.394080891E1;2.964929104E0;3.635687351E0;1.570483923E0
1.395747490E1;3.213066578E0;3.227543592E0;1.571638465E0
1.397414089E1;3.910496235E0;2.629896641E0;1.006082177E0
1.399080688E1;4.283328056E0;2.254129887E0;1.641921997E-1
1.400747286E1;4.555308342E0;2.024750233E0;-4.448504448E-1
1.402413886E1;5.016598701E0;2.114748478E0;-3.734023571E-1
1.404080484E1;5.636492252E0;1.943367004E0;-4.614424706E-1
1.405747083E1;5.926462650E0;1.225309849E0;-8.369519711E-1
1.407413682E1;5.461534500E0;7.818527222E-1;-7.535870075E-1
1.409080281E1;5.550339699E0;6.845617294E-2;-3.308346272E-1
1.410746880E1;6.224981308E0;-5.564875603E-1;5.840895176E-1
1.412413479E1;7.087517738E0;-6.353230476E-1;1.556858659E0
1.414080078E1;7.537183762E0;-3.432121277E-1;1.666780114E0
1.415746677E1;7.451905251E0;2.365007401E-1;1.026030540E0
1.417413276E1;6.474252224E0;6.163949966E-1;-2.154376507E-1
1.419079875E1;4.953079700E0;7.453527451E-1;-1.170532703E0
1.420746474E1;3.396661758E0;6.180505753E-1;-1.542936563E0
1.422413073E1;2.508340359E0;1.780920029E-1;-1.235349178E0
1.424079672E1;2.134632111E0;-4.131908417E-1;-3.493525982E-1
1.425746271E1;1.772202969E0;-1.003551483E0;6.575086117E-1
1.427412870E1;1.190847397E0;-1.343133450E0;1.223882556E0
1.429079469E1;5.262026787E-1;-1.465256214E0;1.464763761E0
1.430746068E1;5.274105072E-2;-1.491336823E0;1.534211159E0
1.432412667E1;-3.355069160E-1;-1.472324848E0;1.669308543E0
1.434079266E1;-7.378101349E-1;-1.457529068E0;1.788313270E0
1.435745865E1;-9.640774727E-1;-1.523077488E0;1.850562453E0
1.437412464E1;-1.073144913E0;-1.693639755E0;1.896037102E0
1.439079063E1;-1.177119732E0;-1.925673962E0;2.488702297E0
1.440745662E1;-1.119511604E0;-2.287496567E0;2.641984940E0
1.442412260E1;-1.338483810E0;-2.539485455E0;2.109091520E0
1.444078860E1;-1.190546036E0;-3.197279215E0;1.401739120E0
1.445745458E1;-1.689060688E0;-3.366093636E0;1.507300615E0
1.447412057E1;-1.465555191E0;-3.408982515E0;2.172735691E0
1.449078656E1;-1.337251186E0;-3.528652906E0;3.066299438E0
1.450745255E1;-1.525529861E0;-3.819406986E0;3.627342701E0
1.452411854E1;-2.225017071E0;-4.075585365E0;3.754592180E0
1.454078453E1;-2.894179344E0;-4.253319740E0;3.629935980E0
1.455745052E1;-3.422033310E0;-4.510354996E0;3.672118664E0
1.457411651E1;-4.150588989E0;-4.715781212E0;3.865036488E0
1.459078250E1;-4.737805843E0;-5.117465019E0;3.815178156E0
1.460744849E1;-5.177990913E0;-5.414073467E0;3.781955481E0
1.462411448E1;-5.833598137E0;-5.595324516E0;3.409258842E0
1.464078047E1;-6.695192337E0;-5.685219765E0;2.446243763E0
1.465744646E1;-7.317132950E0;-5.721502781E0;1.384284973E0
1.467411245E1;-7.259824753E0;-5.937046528E0;6.187574863E-1
1.469077844E1;-6.344636440E0;-5.948986053E0;1.643848419E-1
1.470744443E1;-4.426162243E0;-6.339478493E0;-5.055627823E-1
1.472411042E1;-2.963977337E0;-6.700005531E0;-1.501661777E0
1.474077641E1;-1.713026524E0;-6.963250637E0;-2.130849600E0
1.475744240E1;-7.643790245E-1;-7.456698895E0;-2.129778862E0
1.477410839E1;-3.845272064E-1;-7.483549595E0;-1.137080908E0
1.479077438E1;1.815786362E-1;-7.087059498E0;2.593255043E-2
1.480744036E1;8.660192490E-1;-6.077658176E0;8.736680746E-1
1.482410636E1;1.667009354E0;-4.927917957E0;9.137018919E-1
1.484077235E1;2.685094357E0;-3.824547291E0;6.576170921E-1
1.485743833E1;3.548138142E0;-2.720963955E0;3.795704842E-1
1.487410432E1;3.997658253E0;-1.598578930E0;2.379963398E-1
1.489077031E1;4.068634510E0;-5.538978577E-1;1.516644955E-1
1.490743630E1;3.949333668E0;2.696981430E-1;1.381325722E-2
1.492410229E1;3.882267475E0;9.681110382E-1;-3.778233528E-1
1.494076828E1;3.453929901E0;1.451879501E0;-1.143898964E0
1.495743427E1;2.791668892E0;1.809067726E0;-1.452252388E0
1.497410026E1;2.317879677E0;1.935086727E0;-1.220927954E0
1.499076625E1;1.781369209E0;1.748663425E0;-6.564147472E-1
1.500743224E1;1.289570332E0;1.528624535E0;3.913955688E-1
1.502409823E1;1.124677658E0;1.380551815E0;1.536106825E0
1.504076422E1;1.019426346E0;1.335437775E0;2.535331011E0
1.505743021E1;1.240345001E0;1.193819046E0;3.303081751E0
1.507409620E1;1.257211208E0;1.269729614E0;3.764147520E0
1.509076219E1;1.279821396E0;1.344834805E0;3.956775665E0
1.510742818E1;1.606687069E0;1.368854046E0;4.053687096E0
1.512409417E1;2.593753815E0;1.746781826E0;4.245708466E0
1.514076016E1;4.138133049E0;2.452075481E0;3.608840466E0
1.515742615E1;5.109259605E0;3.311779022E0;2.403647900E0
1.517409214E1;4.946014404E0;3.781341553E0;1.192968130E0
1.519075813E1;4.463539124E0;3.838224888E0;2.250564098E-1
1.520742412E1;4.189927578E0;3.835530281E0;-8.359336853E-2
1.522409010E1;4.062325001E0;3.795860767E0;-5.316712856E-1
1.524075610E1;4.168951511E0;3.614018917E0;-1.230966568E0
1.525742208E1;4.216338634E0;3.335548401E0;-1.647275209E0
1.527408807E1;4.471436024E0;2.702996254E0;-1.152943611E0
1.529075406E1;5.021961689E0;2.333471775E0;9.556078911E-2
1.530742005E1;5.807533741E0;2.183800697E0;8.837682009E-1
1.532408604E1;6.018517017E0;2.453934669E0;1.310621500E-1
1.534075203E1;6.215237617E0;2.462975502E0;-1.704578519E0
1.535741802E1;6.375878334E0;1.865195751E0;-3.149222851E0
1.537408401E1;6.362908840E0;1.210711479E0;-2.836987495E0
1.539075000E1;6.871561050E0;-2.687358856E-2;-1.645944715E0
1.540741599E1;7.080437183E0;-7.718410492E-1;-5.017008781E-1
1.542408198E1;7.382196426E0;-7.395277023E-1;-1.462911367E-1
1.544074797E1;7.807533741E0;-1.694002151E-1;-5.313073397E-1
1.545741396E1;7.497124195E0;4.901227951E-1;-1.164762378E0
1.547407995E1;6.634146214E0;7.810277939E-1;-1.436871767E0
1.549074594E1;5.564568043E0;6.357979774E-1;-9.467107058E-1
1.550741193E1;4.713479042E0;5.990171432E-2;-1.066716909E-1
1.552407792E1;4.050826550E0;-7.367067337E-1;8.306894302E-1
1.554074391E1;3.453075886E0;-1.425768375E0;1.734151006E0
1.555740990E1;2.959762573E0;-1.841652870E0;2.574777365E0
1.557407589E1;2.491928577E0;-2.206338406E0;3.142418623E0
1.559074188E1;1.999255657E0;-2.356100559E0;3.468061686E0
1.560740786E1;1.482857227E0;-2.483716011E0;3.470668554E0
1.562407386E1;9.496173859E-1;-2.591954708E0;3.436684132E0
1.564073984E1;4.611225128E-1;-2.662782192E0;3.353136063E0
1.565740583E1;-6.429386139E-2;-2.797909260E0;3.267939806E0
1.567407182E1;-6.675086021E-1;-2.978258133E0;3.366646290E0
1.569073781E1;-1.038152695E0;-3.207087040E0;3.522748470E0
1.570740380E1;-1.310543537E0;-3.620425224E0;3.470411062E0
1.572406979E1;-2.336776257E0;-3.934827328E0;3.499753952E0
1.574073578E1;-2.843311310E0;-3.982676506E0;3.870261192E0
1.575740177E1;-3.113348961E0;-3.855398893E0;4.378855228E0
1.577406776E1;-3.438677311E0;-3.822263002E0;4.509441853E0
1.579073375E1;-3.561432362E0;-3.978121758E0;4.756844044E0
1.580739974E1;-3.683779240E0;-4.273370743E0;5.055635929E0
1.582406573E1;-4.039196491E0;-4.627953529E0;5.294528961E0
1.584073172E1;-4.953749180E0;-4.710391998E0;5.275907993E0
1.585739771E1;-5.675189972E0;-4.670065403E0;4.995320797E0
1.587406370E1;-5.863299847E0;-4.665735722E0;4.471372128E0
1.589072969E1;-5.681930065E0;-4.754225254E0;3.877053976E0
1.590739568E1;-5.628457546E0;-4.849796772E0;3.463690758E0
1.592406167E1;-5.854790211E0;-4.910470009E0;3.110337257E0
1.594072766E1;-6.165677071E0;-4.892235756E0;3.004404306E0
1.595739365E1;-6.126604080E0;-4.802143574E0;3.020088673E0
1.597405964E1;-5.612496376E0;-4.983702660E0;2.885982037E0
1.599072563E1;-4.806532860E0;-5.421555996E0;7.675611973E-1
1.600739162E1;-4.052952290E0;-5.863131523E0;-2.649307013E0
1.602405761E1;-3.014643669E0;-6.426484585E0;-5.278166771E0
1.604072360E1;-2.078960419E0;-6.988806725E0;-5.266957760E0
1.605738958E1;-1.056490421E0;-7.209712982E0;-2.876399994E0
1.607405557E1;3.735351562E-1;-7.026771069E0;-3.347921371E-1
1.609072156E1;1.500290871E0;-6.581983566E0;1.066311002E0
1.610738755E1;2.272038460E0;-5.644759655E0;1.516951084E0
1.612405354E1;2.987244606E0;-4.679515362E0;1.295830607E0
1.614071953E1;3.875527382E0;-3.965232372E0;1.044928670E0
1.615738552E1;4.460519791E0;-3.168879509E0;8.505263329E-1
1.617405151E1;4.840806484E0;-2.251476288E0;3.717286587E-1
1.619071750E1;4.763031483E0;-1.281771660E0;-3.550608158E-1
1.620738349E1;4.231737137E0;-4.461975098E-1;-1.080579996E0
1.622404948E1;3.476429462E0;2.703266144E-1;-1.290716171E0
1.624071547E1;2.492646694E0;7.879781723E-1;-7.746980190E-1
1.625738146E1;1.473087311E0;1.082635403E0;1.282856464E-1
1.627404745E1;5.707020760E-1;1.330769062E0;1.179032803E0
1.629071344E1;-1.008458138E-1;1.797402859E0;2.181382179E0
1.630737943E1;-5.654540062E-1;2.300027847E0;2.786538124E0
1.632404542E1;-7.735095024E-1;2.696328640E0;3.022571564E0
1.634071141E1;-9.780635834E-1;2.928686142E0;2.649383545E0
1.635737740E1;-8.518066406E-1;2.873774529E0;1.966348290E0
1.637404339E1;-8.194541931E-1;2.722576618E0;1.325230837E0
1.639070938E1;-3.414912224E-1;2.256648064E0;1.024700165E0
1.640737536E1;3.268980980E-1;1.910146236E0;1.364200711E0
1.642404136E1;1.416346073E0;1.788221359E0;1.806280971E0
1.644070734E1;2.626377106E0;1.813450813E0;1.472409964E0
1.645737333E1;3.458250523E0;1.943934917E0;1.285270214E0
1.647403932E1;3.937676907E0;1.856930256E0;1.095879078E0
1.649070531E1;4.388450146E0;1.686994553E0;1.033854246E0
1.650737130E1;4.997105122E0;1.527302742E0;9.101188183E-1
1.652403729E1;5.421993256E0;1.773896694E0;5.510879755E-1
1.654070328E1;5.790910244E0;1.885444164E0;-3.046605587E-1
1.655736927E1;6.282590866E0;1.798900604E0;-1.269104958E0
1.657403526E1;6.663478374E0;1.643578053E0;-2.280344486E0
1.659070125E1;6.645179749E0;1.767932415E0;-2.936448097E0
1.660736724E1;6.244150162E0;1.985762596E0;-3.494571209E0
1.662403323E1;5.731375694E0;2.082961082E0;-3.545264721E0
1.664069922E1;5.796278000E0;1.328011513E0;-3.568419456E0
1.665736521E1;5.187174797E0;6.493873596E-1;-3.027913570E0
1.667403120E1;4.609812737E0;1.792659760E-1;-2.069364786E0
1.669069719E1;4.894159317E0;-1.784076691E-1;-9.249781370E-1
1.670736318E1;6.032722473E0;-7.801151276E-2;1.747238636E-1
1.672402917E1;7.232831478E0;3.316688538E-1;4.250158072E-1
1.674069516E1;7.996736526E0;6.766166687E-1;-2.284210920E-1
1.675736115E1;7.808478355E0;1.043942928E0;-1.027348399E0
1.677402714E1;6.918543816E0;1.039754391E0;-1.736640096E0
1.679069313E1;6.001542568E0;6.667103767E-1;-1.760080338E0
1.680735912E1;5.295842648E0;-9.720325470E-2;-1.152896762E0
1.682402510E1;4.652074337E0;-1.011857986E0;-3.629899025E-2
1.684069110E1;4.028740406E0;-1.602160931E0;1.214671850E0
1.685735708E1;3.485553265E0;-1.905272961E0;2.082686663E0
1.687402307E1;2.858386040E0;-1.834465981E0;2.642689705E0
1.689068906E1;2.154759884E0;-1.694510937E0;2.820040703E0
1.690735505E1;1.395436764E0;-1.654513359E0;2.772206545E0
1.692402104E1;7.160658836E-1;-1.645862579E0;2.775997400E0
1.694068703E1;9.203290939E-2;-1.814052582E0;2.893025875E0
1.695735302E1;-2.462687492E-1;-2.107704639E0;3.025707006E0
1.697401901E1;-5.368928909E-1;-2.515329838E0;3.109885454E0
1.699068500E1;-9.052410126E-1;-3.003461361E0;3.180591345E0
1.700735099E1;-1.460109234E0;-3.549227238E0;3.330413103E0
1.702401698E1;-2.077956676E0;-4.098116875E0;3.386958838E0
1.704068297E1;-3.105808258E0;-4.571355343E0;3.658656120E0
1.705734896E1;-3.706375122E0;-4.482976913E0;3.901087999E0
1.707401495E1;-3.959933281E0;-4.211909771E0;4.222682953E0
1.709068094E1;-4.037709236E0;-4.179776192E0;4.431975842E0
1.710734693E1;-4.102773666E0;-4.225205421E0;4.487714767E0
1.712401292E1;-4.295884609E0;-4.452970505E0;3.997794390E0
1.714067891E1;-4.782592773E0;-4.799278736E0;3.397753954E0
1.715734490E1;-5.340481758E0;-4.905718803E0;2.529362202E0
1.717401089E1;-6.100673676E0;-4.742434502E0;1.084585667E0
1.719067688E1;-6.774178505E0;-4.550776482E0;1.211023331E-1
1.720734286E1;-6.913393021E0;-4.522154331E0;3.995370865E-2
1.722400886E1;-6.859447956E0;-4.561089516E0;8.725321293E-1
1.724067484E1;-6.844419479E0;-4.671905994E0;1.727180243E0
1.725734083E1;-6.844338417E0;-5.022838593E0;2.189447641E0
1.727400682E1;-6.260249138E0;-5.755833626E0;1.931659341E0
1.729067281E1;-5.217369556E0;-6.736586094E0;1.104137659E0
1.730733880E1;-4.021069050E0;-7.358109474E0;2.476754189E-1
1.732400479E1;-2.749048233E0;-7.933311939E0;-7.618665695E-3
1.734067078E1;-1.722359180E0;-8.201328278E0;5.586824417E-1
1.735733677E1;-6.843118668E-1;-7.979594231E0;1.324190021E0
1.737400276E1;2.969713211E-1;-7.260657787E0;1.901133299E0
1.739066875E1;1.482492447E0;-6.276786804E0;1.659217954E0
1.740733474E1;2.521311760E0;-5.192977905E0;1.068658113E0
1.742400073E1;3.623204708E0;-4.292028904E0;5.347814560E-1
1.744066672E1;4.328873634E0;-3.245205879E0;3.664100170E-1
1.745733271E1;4.742006779E0;-2.242361069E0;3.063976765E-1
1.747399870E1;4.997266769E0;-1.241409302E0;1.373555660E-1
1.749066469E1;4.965156555E0;-2.067308426E-1;1.765520573E-1
1.750733068E1;4.710861206E0;5.778551102E-1;3.950456381E-1
1.752399667E1;4.136955261E0;1.232265472E0;6.839588881E-1
1.754066266E1;3.318321228E0;1.649627686E0;8.518260717E-1
1.755732865E1;2.108349800E0;2.190371037E0;4.250401258E-1
1.757399464E1;1.203168869E0;2.576469898E0;1.282215118E-2
1.759066063E1;4.594655037E-1;2.784010410E0;2.577877045E-2
1.760732661E1;1.119179726E-1;2.805661201E0;6.085231304E-1
1.762399260E1;8.607482910E-2;2.583229065E0;1.197641492E0
1.764065860E1;-2.055964470E-1;2.365025997E0;1.731466174E0
1.765732458E1;-3.634881973E-1;1.962979794E0;1.950031281E0
1.767399057E1;-9.969329834E-2;1.562200069E0;2.293671846E0
1.769065656E1;7.964015007E-1;1.278553009E0;2.654226065E0
1.770732255E1;1.891454220E0;1.301202297E0;2.848731279E0
1.772398854E1;3.052842617E0;1.491196156E0;2.279396057E0
1.774065453E1;3.959740639E0;1.845997334E0;1.554963112E0
1.775732052E1;4.489094257E0;2.294359684E0;6.973755360E-1
1.777398651E1;4.781566143E0;2.524045944E0;-2.884161472E-2
1.779065250E1;5.125224113E0;2.600807667E0;-7.074562311E-1
1.780731849E1;5.631853104E0;2.646889210E0;-1.444654942E0
1.782398448E1;5.966530323E0;2.412736893E0;-1.979254961E0
1.784065047E1;6.451223373E0;2.234593868E0;-2.351935863E0
1.785731646E1;6.945255280E0;2.027698040E0;-2.389664888E0
1.787398245E1;7.211966515E0;1.817861080E0;-2.354552984E0
1.789064844E1;7.294391632E0;1.878369331E0;-2.491731167E0
1.790731443E1;7.392586708E0;1.496806145E0;-2.887208700E0
1.792398042E1;6.877766609E0;6.933612823E-1;-2.772051811E0
1.794064641E1;6.493709564E0;-5.340576172E-3;-1.877013683E0
1.795731240E1;7.075689316E0;-9.683923721E-1;-8.979940414E-1
1.797397839E1;8.088308334E0;-1.350428581E0;7.725358009E-3
1.799064438E1;9.156744957E0;-1.255494118E0;1.806232929E-1
1.800731037E1;9.321626663E0;-5.680704117E-1;-3.166055679E-1
1.802397636E1;8.779794693E0;2.811374664E-1;-1.045771599E0
1.804064235E1;7.651425362E0;6.934757233E-1;-1.601824880E0
1.805730833E1;6.412067413E0;4.443407059E-1;-1.404666901E0
1.807397432E1;5.364137173E0;-1.044435501E-1;-5.240489244E-1
1.809064031E1;4.628207684E0;-8.978195190E-1;5.083435774E-1
1.810730630E1;3.924199581E0;-1.524950981E0;1.456908941E0
1.812397229E1;3.292245865E0;-1.989842415E0;2.013227701E0
1.814063828E1;2.314286709E0;-2.161216736E0;2.238990307E0
1.815730427E1;1.358318329E0;-2.243534088E0;1.968740940E0
1.817397026E1;5.261697769E-1;-2.077918053E0;1.811469793E0
1.819063625E1;6.595993042E-2;-1.949934006E0;1.786612630E0
1.820730224E1;3.461551666E-2;-1.883473396E0;1.996257901E0
1.822396823E1;-9.003400803E-2;-2.060826302E0;2.557650089E0
1.824063422E1;-3.797340393E-1;-2.376790047E0;3.276116848E0
1.825730021E1;-3.302040100E-1;-2.761536121E0;3.802345991E0
1.827396620E1;-6.701760292E-1;-3.144363880E0;4.473166466E0
1.829063219E1;-1.242738724E0;-3.495487213E0;5.038668633E0
1.830729818E1;-1.508894444E0;-3.578239918E0;5.366071224E0
1.832396417E1;-1.810368061E0;-3.683247089E0;5.751658916E0
1.834063016E1;-2.002249718E0;-3.780933857E0;5.682849407E0
1.835729615E1;-2.302880764E0;-3.659821510E0;5.167362690E0
1.837396214E1;-2.394730568E0;-3.463881969E0;4.733908653E0
1.839062813E1;-2.530932426E0;-3.503226280E0;4.780293941E0
1.840729412E1;-2.876533031E0;-3.844592333E0;5.491709232E0
1.842396010E1;-3.477686882E0;-4.400785446E0;6.166533470E0
1.844062610E1;-4.441860199E0;-4.736529350E0;6.594798088E0
1.845729208E1;-5.221925735E0;-4.761365891E0;6.350892544E0
1.847395807E1;-5.715287685E0;-4.431291580E0;5.484644413E0
1.849062406E1;-5.694411278E0;-4.073698521E0;4.098258018E0
1.850729005E1;-4.940249443E0;-3.414675236E0;2.916256428E0
1.852395604E1;-3.367677689E0;-2.817426443E0;2.269093752E0
1.854062203E1;-1.649970531E0;-3.032045126E0;2.387097359E0
1.855728802E1;-2.093872547E0;-4.366817474E0;2.561585903E0
1.857395401E1;-6.093585968E0;-6.181787491E0;-7.504572868E-1
1.859062000E1;-1.019000149E1;-7.498527527E0;-5.223648071E0
1.860728599E1;-9.151247978E0;-7.936062336E0;-5.231166363E0
1.862395198E1;-4.121241570E0;-7.822855949E0;-1.913563490E0
1.864061797E1;-3.128647804E-1;-6.925329208E0;1.050414085E0
1.865728396E1;4.764451981E-1;-6.086843491E0;1.474896669E0
1.867394995E1;-2.142343521E-1;-5.534829617E0;7.448973656E-1
1.869061594E1;-3.429603577E-1;-5.122068405E0;4.329552650E-1
1.870728193E1;5.481390953E-1;-4.696359634E0;8.445680141E-1
1.872394792E1;1.644660473E0;-4.064177513E0;7.707989216E-1
1.874061391E1;2.451286316E0;-3.330187321E0;6.489825249E-2
1.875727990E1;2.730545998E0;-2.596559525E0;-1.067110538E0
1.877394589E1;2.844417572E0;-1.756362438E0;-1.975983381E0
1.879061188E1;2.880651474E0;-8.919181824E-1;-2.203991413E0
1.880727787E1;2.732022762E0;-9.463930130E-2;-1.547787428E0
1.882394386E1;2.488892078E0;6.537518501E-1;-3.645334244E-1
1.884060985E1;2.177051067E0;1.130563736E0;6.313443184E-1
1.885727583E1;1.851552010E0;1.569757462E0;1.591138601E0
1.887394182E1;1.371345997E0;1.895988464E0;1.800590038E0
1.889060781E1;1.200941086E0;2.063536167E0;1.817194223E0
1.890727380E1;1.213264465E0;2.102721214E0;1.675762415E0
1.892393979E1;1.502590179E0;1.993984222E0;1.925086021E0
1.894060578E1;1.979131699E0;1.802312374E0;2.234938622E0
1.895727177E1;2.430269718E0;1.630444050E0;2.539392233E0
1.897393776E1;2.707952023E0;1.590636253E0;2.637097836E0
1.899060375E1;3.046866894E0;1.559869289E0;2.306053162E0
1.900726974E1;3.592844009E0;1.744300365E0;2.161168337E0
1.902393573E1;4.142864227E0;2.011817455E0;2.092834949E0
1.904060172E1;4.371615410E0;2.340373039E0;2.078120708E0
1.905726771E1;4.532382011E0;2.698026657E0;1.732451320E0
1.907393370E1;4.787686825E0;2.854141235E0;9.828969240E-1
1.909059969E1;4.866399288E0;2.999529362E0;2.193212509E-2
1.910726568E1;5.137003899E0;2.775439262E0;-9.243609905E-1
1.912393167E1;5.528677940E0;2.421869755E0;-1.329808235E0
1.914059766E1;5.857356548E0;2.262538910E0;-1.550659418E0
1.915726365E1;6.396669388E0;2.415477276E0;-1.813920975E0
1.917392964E1;6.951521873E0;2.770943642E0;-2.416894913E0
1.919059563E1;7.358358860E0;2.550119400E0;-3.257651806E0
1.920726162E1;7.026144981E0;1.472698212E0;-3.731582403E0
1.922392760E1;6.064597130E0;5.615611076E-1;-2.674166441E0
1.924059360E1;6.124430180E0;-3.001012802E-1;-1.224953651E0
1.925725958E1;6.976142406E0;-8.418102264E-1;1.388117075E-1
1.927392557E1;8.003612518E0;-8.631925583E-1;1.137009740E0
1.929059156E1;8.240840912E0;-1.125535965E-1;1.286481023E0
1.930725755E1;7.886445999E0;8.158984184E-1;2.685630322E-1
1.932392354E1;7.368802547E0;1.416520596E0;-6.849290133E-1
1.934058953E1;6.364411831E0;1.583663464E0;-1.044838905E0
1.935725552E1;5.157395840E0;1.308593750E0;-9.502696991E-1
1.937392151E1;4.327214241E0;7.404441833E-1;-6.381409168E-1
1.939058750E1;3.598564625E0;7.729434967E-2;-1.636269093E-1
1.940725349E1;2.829237938E0;-5.997281075E-1;3.110024929E-1
1.942391948E1;2.156301498E0;-1.038837433E0;9.388597012E-1
1.944058547E1;1.493785858E0;-1.201558113E0;1.553897977E0
1.945725146E1;9.820566177E-1;-1.303673267E0;1.942460299E0
1.947391745E1;5.743198395E-1;-1.478524208E0;2.219641447E0
1.949058344E1;1.247472763E-1;-1.692327499E0;2.391113758E0
1.950724943E1;-1.555690765E-1;-1.932791233E0;2.649838924E0
1.952391542E1;-2.805023193E-1;-2.283519268E0;2.786736012E0
1.954058141E1;-4.494709969E-1;-2.770104408E0;2.944568634E0
1.955724740E1;-7.160854340E-1;-3.331860542E0;3.245884657E0
1.957391339E1;-1.085256100E0;-3.962522984E0;3.446291685E0
1.959057938E1;-1.704498768E0;-4.250650406E0;3.723068237E0
1.960724536E1;-1.692244530E0;-4.161259651E0;3.872007132E0
1.962391136E1;-1.769521236E0;-3.905738354E0;4.114957809E0
1.964057734E1;-1.810670853E0;-3.848007441E0;4.374509335E0
1.965724333E1;-1.885878086E0;-4.019091606E0;4.599178314E0
1.967390932E1;-2.154060841E0;-4.181582928E0;4.719129086E0
1.969057531E1;-2.637786388E0;-4.450431824E0;4.519898415E0
1.970724130E1;-3.310361385E0;-4.766505241E0;4.220156670E0
1.972390729E1;-4.046740055E0;-4.887540817E0;4.100705147E0
1.974057328E1;-4.602667809E0;-5.053583622E0;3.931633949E0
1.975723927E1;-5.042671680E0;-5.112157345E0;4.013445377E0
1.977390526E1;-5.304880142E0;-5.005368233E0;4.347693920E0
1.979057125E1;-5.445372105E0;-4.888095379E0;4.613402367E0
1.980723724E1;-5.503632069E0;-4.858557701E0;4.527964592E0
1.982390323E1;-5.397629738E0;-4.967967033E0;4.110878944E0
1.984056922E1;-4.896248817E0;-5.184854507E0;2.674140215E0
1.985723521E1;-3.996418476E0;-5.697431564E0;6.016113758E-1
1.987390120E1;-3.256045341E0;-5.948850155E0;-5.557575226E-1
1.989056719E1;-2.206558228E0;-6.217628479E0;-2.417910099E-1
1.990723318E1;-1.659127235E0;-6.509489536E0;4.289882183E-1
1.992389917E1;-1.962810993E0;-6.318129539E0;-8.771109581E-2
1.994056516E1;-2.035700798E0;-5.649423599E0;-9.282054901E-1
1.995723115E1;-1.444980621E0;-4.997868538E0;-1.580683470E0
1.997389714E1;-4.821090698E-1;-4.343943596E0;-1.927782774E0
1.999056313E1;6.449236870E-1;-3.948478222E0;-1.677704573E0
2.000722912E1;1.309493065E0;-3.661631107E0;-1.104017258E0
2.002389510E1;1.452726364E0;-3.464395046E0;-9.426081181E-1
2.004056110E1;1.772433281E0;-3.465522289E0;-5.629642010E-1
2.005722708E1;2.008440971E0;-3.216318130E0;4.336943626E-1
2.007389307E1;2.177725792E0;-2.522758007E0;1.319564342E0
2.009055906E1;2.087837219E0;-1.521049500E0;1.720407963E0
2.010722505E1;2.012563705E0;-3.542757034E-1;1.708928108E0
2.012389104E1;1.934998989E0;7.551665306E-1;1.391160011E0
2.014055703E1;1.978577614E0;1.463021278E0;9.816954136E-1
2.015722302E1;2.113366127E0;1.862334728E0;6.356079578E-1
2.017388901E1;2.384847641E0;2.230092525E0;4.359469414E-1
2.019055500E1;2.427430630E0;2.257609844E0;3.018088341E-1
2.020722099E1;2.454062462E0;2.123116016E0;1.656105518E-1
2.022388698E1;2.863320827E0;1.998037815E0;-3.979134560E-2
2.024055297E1;3.728390694E0;2.003371239E0;-6.943559647E-2
2.025721896E1;4.479212284E0;2.149079800E0;-1.746449471E-1
2.027388495E1;4.660138130E0;2.276796341E0;-2.535057068E-1
2.029055094E1;4.828569412E0;2.390648842E0;-2.767710686E-1
2.030721693E1;4.964007378E0;2.521698952E0;-3.683805466E-2
2.032388292E1;5.029457092E0;2.770727634E0;2.888778448E-1
2.034054891E1;4.805242538E0;2.831506729E0;4.438178539E-1
2.035721490E1;4.184539318E0;2.844218254E0;-1.291471720E-1
2.037388089E1;3.958828926E0;2.809286118E0;-1.322492361E0
2.039054688E1;3.645320892E0;2.653067589E0;-2.803229332E0
2.040721286E1;3.567952156E0;2.271398067E0;-3.590133667E0
2.042387886E1;3.768218040E0;1.913580418E0;-3.021992207E0
2.044054484E1;4.421094894E0;1.557336807E0;-2.194729805E0
2.045721083E1;4.800235748E0;1.488022327E0;-1.522443295E0
2.047387682E1;4.842490673E0;1.685538769E0;-1.302558541E0
2.049054281E1;4.804475784E0;1.724366665E0;-1.415903568E0
2.050720880E1;4.949777603E0;1.126818180E0;-1.692269325E0
2.052387479E1;5.237112045E0;-4.545402527E-2;-1.912313819E0
2.054054078E1;5.526929855E0;-1.083561897E0;-2.289232254E0
2.055720677E1;5.928533077E0;-1.846037865E0;-3.094781160E0
2.057387276E1;6.816554070E0;-1.623096466E0;-3.982200623E0
2.059053875E1;7.791363239E0;-9.663476944E-1;-4.605841160E0
2.060720474E1;7.936426640E0;-2.452516556E-1;-4.826908112E0
2.062387073E1;7.154748440E0;2.845067978E-1;-4.434075832E0
2.064053672E1;6.058033466E0;2.629604340E-1;-3.628492832E0
2.065720271E1;4.761633873E0;-1.116466522E-2;-2.415013075E0
2.067386870E1;3.526623726E0;-4.061899185E-1;-7.939213514E-1
2.069053469E1;2.477053642E0;-1.041542053E0;7.294096947E-1
2.070720068E1;1.385482788E0;-1.737244606E0;1.994813085E0
2.072386667E1;3.627433777E-1;-2.182052612E0;2.968680382E0
2.074053266E1;-4.416270256E-1;-2.477011681E0;3.543052673E0
2.075719865E1;-1.474736691E0;-2.340317726E0;4.060730934E0
2.077386464E1;-1.743213177E0;-1.763006687E0;3.983818531E0
2.079053063E1;-1.101536751E0;-1.118190765E0;3.534736156E0
2.080719662E1;-5.335698128E-1;-5.934076309E-1;3.032892227E0
2.082386261E1;-1.678433418E-1;-3.864550591E-1;2.691483974E0
2.084052860E1;-1.687655449E-1;-4.395608902E-1;2.551591873E0
2.085719458E1;-2.955965996E-1;-7.349300385E-1;2.557783365E0
2.087386057E1;-3.996152878E-1;-1.102417469E0;2.769312382E0
2.089052656E1;-4.857935905E-1;-1.640902519E0;3.118967533E0
2.090719255E1;-9.938373566E-1;-2.133100033E0;3.877170563E0
2.092385854E1;-1.373724461E0;-2.322126389E0;4.555578709E0
2.094052453E1;-1.451432228E0;-2.337256908E0;4.966367245E0
2.095719052E1;-1.699806213E0;-2.363660336E0;5.112834930E0
2.097385651E1;-2.012948990E0;-2.697763443E0;5.394350052E0
2.099052250E1;-2.527190685E0;-3.148162365E0;5.721605301E0
2.100718849E1;-3.180154324E0;-3.585873604E0;5.877642632E0
2.102385448E1;-3.827392817E0;-3.808332443E0;5.835775375E0
2.104052047E1;-4.227241039E0;-3.918135881E0;5.287267208E0
2.105718646E1;-4.472949028E0;-3.874560356E0;4.808251381E0
2.107385245E1;-4.494590759E0;-3.989711285E0;4.867324829E0
2.109051844E1;-4.116842270E0;-4.178531647E0;5.591392040E0
2.110718443E1;-4.327678680E0;-4.097645760E0;5.881717682E0
2.112385042E1;-4.237775803E0;-4.195288181E0;5.397911072E0
2.114051641E1;-4.124311447E0;-4.517583370E0;3.981238127E0
2.115718240E1;-3.700471640E0;-5.164412975E0;1.578168869E0
2.117384839E1;-3.314006805E0;-5.557329655E0;-1.577120304E0
2.119051438E1;-2.628023148E0;-5.350577354E0;-3.962139130E0
2.120718036E1;-1.676796913E0;-4.857552052E0;-4.339969635E0
2.122384636E1;-6.539783478E-1;-4.796222210E0;-3.166795731E0
2.124051235E1;-3.865327835E-1;-4.749002457E0;-1.170088291E0
2.125717833E1;-5.850248337E-1;-4.497140408E0;7.818765640E-1
2.127384432E1;-8.012228012E-1;-3.906997204E0;2.298428774E0
2.129051031E1;-1.354966164E-1;-3.249030590E0;2.895914793E0
2.130717630E1;8.349719048E-1;-2.735225677E0;2.515688181E0
2.132384229E1;1.689826965E0;-2.186874390E0;1.778093934E0
2.134050828E1;2.301005363E0;-1.687838078E0;4.463880062E-1
2.135717427E1;2.397896290E0;-1.162459850E0;-1.197920561E0
2.137384026E1;2.359061718E0;-5.626115799E-1;-2.693921566E0
2.139050625E1;2.363276958E0;8.393383026E-2;-3.280864716E0
2.140717224E1;2.321821690E0;7.333087921E-1;-3.057994366E0
2.142383823E1;2.283905983E0;1.405217648E0;-2.213521481E0
2.144050422E1;2.101808071E0;2.036357403E0;-1.067727089E0
2.145717021E1;1.984734535E0;2.380990505E0;-7.062053680E-2
2.147383620E1;1.798696995E0;2.509368896E0;5.094170570E-1
2.149050219E1;1.588676453E0;2.565925598E0;7.473789454E-1
2.150716818E1;1.431962967E0;2.530818462E0;4.892010689E-1
2.152383417E1;1.381750107E0;2.465505123E0;3.775081635E-1
2.154050016E1;1.502706528E0;2.250321865E0;2.329318523E-1
2.155716615E1;1.657574177E0;2.130716324E0;1.518294811E-1
2.157383214E1;1.885118008E0;2.060212135E0;1.300933361E-1
2.159049813E1;2.185260296E0;2.052208900E0;2.199554443E-2
2.160716412E1;2.468776226E0;2.208959579E0;-1.082347631E-1
2.162383010E1;2.436289310E0;2.423167706E0;-3.908461332E-1
2.164049610E1;2.217514992E0;2.697659016E0;-5.677326918E-1
2.165716208E1;2.077031612E0;2.705905914E0;-4.323588610E-1
2.167382807E1;2.000648022E0;2.427437782E0;-1.139239073E-1
2.169049406E1;2.032868385E0;1.964694977E0;1.152797937E-1
2.170716005E1;2.043004990E0;1.626154423E0;9.606671333E-2
2.172382604E1;2.094701290E0;1.460519314E0;-4.273343086E-2
2.174049203E1;2.535665035E0;1.283018589E0;-2.361882925E-1
2.175715802E1;2.771122932E0;1.149131775E0;-3.145238161E-1
2.177382401E1;2.789937496E0;9.673905373E-1;-6.666092873E-1
2.179049000E1;2.762485981E0;8.928828239E-1;-1.353887558E0
2.180715599E1;2.779479504E0;9.711365700E-1;-2.029343128E0
2.182382198E1;2.898448467E0;1.222687244E0;-2.519351006E0
2.184048797E1;3.203872204E0;1.234896660E0;-2.694723606E0
2.185715396E1;3.783574104E0;5.415258408E-1;-2.861094475E0
2.187381995E1;4.006976604E0;-3.911867142E-1;-2.898869991E0
2.189048594E1;3.933413506E0;-1.225941658E0;-2.525936604E0
2.190715193E1;4.559374332E0;-2.184425354E0;-2.186225414E0
2.192381792E1;5.371574402E0;-2.678388596E0;-1.756889820E0
2.194048391E1;6.059051991E0;-2.218770981E0;-1.379571676E0
2.195714990E1;6.417347908E0;-9.869136810E-1;-1.550263524E0
2.197381589E1;6.348752022E0;4.218149185E-1;-2.142252207E0
2.199048188E1;6.051764488E0;1.387480259E0;-2.735716820E0
2.200714786E1;5.445701122E0;1.428610802E0;-2.712367296E0
2.202381386E1;5.064170837E0;6.800985336E-1;-2.232159853E0
2.204047984E1;4.429724216E0;-2.311315536E-1;-1.537162662E0
2.205714583E1;3.536187649E0;-1.181850433E0;-6.993660927E-1
2.207381182E1;3.058625698E0;-1.757105350E0;4.498895407E-1
2.209047781E1;2.986842632E0;-1.996603966E0;1.678954959E0
2.210714380E1;2.569798946E0;-2.215532780E0;2.672670841E0
2.212380979E1;1.759483337E0;-2.399434566E0;3.534779072E0
2.214047578E1;6.948571205E-1;-2.420665264E0;3.795415163E0
2.215714177E1;-4.715251923E-1;-2.632011890E0;3.548016310E0
2.217380776E1;-1.366203785E0;-2.726198673E0;3.265732527E0
2.219047375E1;-1.518063068E0;-2.815369129E0;3.186502457E0
2.220713974E1;-1.642508984E0;-2.911329269E0;3.048186541E0
2.222380573E1;-1.808974743E0;-3.271766186E0;2.422544003E0
2.224047172E1;-2.658751965E0;-3.498605251E0;2.232544899E0
2.225713771E1;-3.033451080E0;-3.592519999E0;2.394146442E0
2.227380370E1;-3.488358974E0;-3.522196293E0;2.890397310E0
2.229046969E1;-3.794363976E0;-3.412884474E0;3.008452654E0
2.230713568E1;-4.206178188E0;-3.305765152E0;2.579996109E0
2.232380167E1;-4.877319336E0;-3.380599022E0;1.670020819E0
2.234046766E1;-5.797337532E0;-3.307184935E0;9.610738754E-1
2.235713365E1;-6.199876785E0;-3.183427095E0;9.405503273E-1
2.237379964E1;-6.153738022E0;-3.154441595E0;1.491447926E0
2.239046563E1;-5.914473057E0;-3.151245117E0;2.245440245E0
2.240713162E1;-5.763762474E0;-3.158817530E0;2.612497568E0
2.242379760E1;-5.608833313E0;-3.321163654E0;2.496401310E0
2.244046360E1;-5.338343620E0;-3.540778160E0;2.215383530E0
2.245712958E1;-4.942776680E0;-3.492865324E0;1.858742595E0
2.247379557E1;-4.510220051E0;-3.395809889E0;1.731773853E0
2.249046156E1;-3.844059467E0;-3.521504164E0;1.737635374E0
2.250712755E1;-2.789989948E0;-3.940128803E0;1.759038687E0
2.252379354E1;-1.493083000E0;-4.766769409E0;1.541182280E0
2.254045953E1;-7.447938919E-1;-5.738715172E0;1.025827885E0
2.255712552E1;-6.245441437E-1;-5.908159733E0;9.643743038E-1
2.257379151E1;-6.134557724E-2;-5.905212402E0;9.643766880E-1
2.259045750E1;8.429446220E-1;-5.690527916E0;1.259066820E0
2.260712349E1;1.422805786E0;-5.714109421E0;1.221779108E0
2.262378948E1;1.508616924E0;-5.589964390E0;8.182942867E-1
2.264045547E1;1.434418201E0;-5.274062157E0;1.548662186E-1
2.265712146E1;1.474382401E0;-4.300848961E0;2.090373039E-1
2.267378745E1;1.938152313E0;-3.330386639E0;3.385801315E-1
2.269045344E1;2.854138851E0;-2.377226353E0;5.737874508E-1
2.270711943E1;3.507154942E0;-1.492085457E0;4.872212410E-1
2.272378542E1;3.648116589E0;-8.195414543E-1;-9.253501892E-3
2.274045141E1;3.377574444E0;-3.002352715E-1;-6.805729866E-1
2.275711740E1;2.875623703E0;3.324270248E-2;-1.186865330E0
2.277378339E1;2.321744442E0;4.612989426E-1;-1.240871310E0
2.279044938E1;1.857633591E0;9.667611122E-1;-1.069520950E0
2.280711536E1;1.739477634E0;1.443056583E0;-7.421871424E-1
2.282378136E1;1.518288136E0;2.017881393E0;-3.254615068E-1
2.284044734E1;1.205037117E0;2.531464577E0;-7.206153870E-2
2.285711333E1;8.657155037E-1;2.985959530E0;6.671845913E-2
2.287377932E1;6.347818375E-1;3.261674881E0;1.731210947E-1
2.289044531E1;6.518363953E-1;3.412830830E0;4.503188133E-1
2.290711130E1;9.516644478E-1;3.350620747E0;6.831317544E-1
2.292377729E1;1.246614933E0;3.141865730E0;8.932553530E-1
2.294044328E1;1.468080521E0;2.952573776E0;7.701810598E-1
2.295710927E1;1.963060856E0;2.674690247E0;4.734880924E-1
2.297377526E1;2.708376408E0;2.278877258E0;2.268911600E-1
2.299044125E1;3.278514385E0;2.078694820E0;-1.600017548E-1
2.300710724E1;3.468796730E0;2.234685898E0;-4.348767996E-1
2.302377323E1;3.820201397E0;2.431682110E0;-6.068968773E-1
2.304043922E1;4.194210529E0;2.679237843E0;-6.510883570E-1
2.305710521E1;4.384336948E0;2.698906422E0;-4.696178436E-1
2.307377120E1;4.143583775E0;2.368218422E0;-1.416858435E-1
2.309043719E1;3.727916241E0;2.009239197E0;-1.726908684E-1
2.310710318E1;3.549634933E0;1.630595684E0;-6.407119036E-1
2.312376917E1;3.702412128E0;1.302995682E0;-1.036372304E0
2.314043516E1;3.942098618E0;1.257883072E0;-1.362447977E0
2.315710115E1;4.407879353E0;1.340126038E0;-1.896900177E0
2.317376714E1;4.824339867E0;1.614437580E0;-2.283195496E0
2.319043313E1;5.389505386E0;1.319189072E0;-2.665457964E0
2.320709912E1;5.219238281E0;6.503181458E-1;-2.715523481E0
2.322376511E1;4.988565445E0;-5.919170380E-2;-2.355894327E0
2.324043110E1;5.236993313E0;-1.035970688E0;-1.908691645E0
2.325709708E1;5.686831474E0;-1.460427284E0;-1.343378544E0
2.327376307E1;6.389496326E0;-1.141915321E0;-1.138697386E0
2.329042906E1;6.875095367E0;-3.683252335E-1;-1.293116331E0
2.330709505E1;6.691597462E0;4.107475281E-1;-1.872303247E0
2.332376104E1;5.887037277E0;8.669948578E-1;-2.257781506E0
2.334042703E1;4.902769566E0;8.188347816E-1;-2.403888941E0
2.335709302E1;4.068592072E0;4.240722656E-1;-1.954078555E0
2.337375901E1;3.340077877E0;-1.874637604E-1;-1.117056370E0
2.339042500E1;2.763835430E0;-8.179631233E-1;3.011751175E-2
2.340709099E1;2.218173504E0;-1.271934032E0;1.107216001E0
2.342375698E1;1.547613144E0;-1.434257984E0;1.831295371E0
2.344042297E1;9.920711517E-1;-1.476877213E0;2.391997337E0
2.345708896E1;4.164247513E-1;-1.338379860E0;2.824812889E0
2.347375495E1;1.626539230E-1;-1.286019325E0;3.028953552E0
2.349042094E1;-3.759860992E-2;-1.312769890E0;3.128483534E0
2.350708693E1;-1.469039917E-1;-1.438169003E0;3.124492407E0
2.352375292E1;-3.151426315E-1;-1.599119663E0;3.265799761E0
2.354041891E1;-5.335559845E-1;-1.889294624E0;3.401576281E0
2.355708490E1;-8.080406189E-1;-2.256964684E0;3.566811085E0
2.357375089E1;-1.344119549E0;-2.699052811E0;3.635814905E0
2.359041688E1;-1.933535099E0;-2.780165672E0;3.968148232E0
2.360708287E1;-2.274791718E0;-2.805802345E0;3.848017693E0
2.362374886E1;-2.413944244E0;-2.805087090E0;4.160600662E0
2.364041485E1;-2.440305233E0;-2.861749172E0;4.749059677E0
2.365708083E1;-2.570611477E0;-2.973063469E0;5.372376442E0
2.367374682E1;-2.918228149E0;-3.327033043E0;5.463683128E0
2.369041281E1;-3.663993835E0;-3.559530735E0;5.018873215E0
2.370707880E1;-4.546587467E0;-3.572034597E0;4.247506142E0
2.372374479E1;-5.140780449E0;-3.358163834E0;3.553660870E0
2.374041078E1;-5.298401833E0;-3.339407206E0;3.039804935E0
2.375707677E1;-5.284169197E0;-3.364099026E0;2.901060343E0
2.377374276E1;-5.183906078E0;-3.451589823E0;2.949083328E0
2.379040875E1;-5.236139297E0;-3.652945518E0;2.900206089E0
2.380707474E1;-5.697614670E0;-3.725052595E0;2.931647062E0
2.382374073E1;-5.816681385E0;-4.007474899E0;2.550049782E0
2.384040672E1;-5.304289818E0;-4.548645973E0;1.615191936E0
2.385707271E1;-3.943770885E0;-5.310656548E0;8.021950722E-2
2.387373870E1;-2.514933586E0;-5.852825642E0;-1.553143978E0
2.389040469E1;-2.126360416E0;-6.223324776E0;-2.262653589E0
2.390707068E1;-2.226231575E0;-6.733457088E0;-1.568857908E0
2.392373667E1;-2.347127914E0;-6.978218555E0;8.213138580E-2
2.394040266E1;-1.785125732E0;-6.792055130E0;1.756472230E0
2.395706865E1;-7.261943817E-1;-6.135506153E0;2.496939182E0
2.397373464E1;6.002669334E-1;-5.328861237E0;2.174762011E0
2.399040063E1;1.947785854E0;-4.600265026E0;1.186007380E0
2.400706662E1;3.185283184E0;-3.885768890E0;6.424819231E-1
2.402373261E1;4.035145283E0;-2.916623116E0;5.996555090E-1
2.404039860E1;4.689051628E0;-2.015532017E0;1.322350502E-1
2.405706458E1;4.974308491E0;-1.100489140E0;-7.394933701E-1
2.407373057E1;4.922555923E0;-1.168513298E-1;-1.174617052E0
2.409039656E1;4.680418015E0;8.191199303E-1;-1.272995353E0
2.410706255E1;4.366619110E0;1.705710411E0;-1.098673105E0
2.412372854E1;3.877632618E0;2.365022659E0;-8.386619091E-1
2.414039453E1;2.849242210E0;2.771072865E0;-6.934235096E-1
2.415706052E1;1.688963890E0;3.032157421E0;-6.460710764E-1
2.417372651E1;1.001448154E0;3.140244961E0;-3.378101587E-1
2.419039250E1;6.892004013E-1;3.119351864E0;1.076675653E-1
2.420705849E1;3.155822754E-1;3.128937244E0;7.812428474E-2
2.422372448E1;1.184029579E-1;2.992004871E0;-2.690312862E-1
2.424039047E1;6.495046616E-2;2.777557850E0;-3.197125196E-1
2.425705646E1;1.663398743E-2;2.403119087E0;1.929259300E-2
2.427372245E1;4.196290970E-1;1.857438087E0;9.044215679E-1
2.429038844E1;7.779150009E-1;1.548453808E0;1.640627027E0
2.430705443E1;1.191924572E0;1.508764267E0;2.028734207E0
2.432372042E1;1.711050034E0;1.726311684E0;2.316713572E0
2.434038641E1;2.388614178E0;1.915494919E0;2.091245413E0
2.435705240E1;3.041898727E0;2.102343082E0;1.625885844E0
2.437371839E1;3.736903191E0;2.193312168E0;6.631499529E-1
2.439038438E1;4.229471207E0;2.247038364E0;-5.012098551E-1
2.440705036E1;4.599183083E0;2.099575043E0;-1.702246547E0
2.442371636E1;4.946820736E0;2.077334404E0;-2.239463806E0
2.444038234E1;5.758979321E0;2.124362469E0;-2.531396389E0
2.445704833E1;6.877118587E0;2.179237366E0;-2.483402729E0
2.447371432E1;7.385311127E0;2.530901909E0;-2.216801643E0
2.449038031E1;7.266097546E0;2.607311249E0;-2.427558899E0
2.450704630E1;6.963117599E0;2.111759186E0;-3.046639204E0
2.452371229E1;6.869233131E0;9.010477066E-1;-3.341638803E0
2.454037828E1;6.381246090E0;2.343235016E-1;-3.308834553E0
2.455704427E1;6.386101246E0;-6.495666504E-1;-3.087245941E0
2.457371026E1;6.684299469E0;-1.263407707E0;-1.887076259E0
2.459037625E1;7.198208332E0;-1.466241837E0;-2.752783298E-1
2.460704224E1;7.253475666E0;-1.200372696E0;8.712804317E-1
2.462370823E1;6.610514164E0;-6.713047028E-1;1.198725581E0
2.464037422E1;5.474338055E0;-2.475805283E-1;1.055229902E0
2.465704021E1;4.228027344E0;-1.298208237E-1;7.023296952E-1
2.467370620E1;3.155376911E0;-3.057308197E-1;6.933760643E-1
2.469037219E1;2.368041515E0;-6.999158859E-1;9.694254398E-1
2.470703818E1;1.729424953E0;-1.193939209E0;1.439953327E0
2.472370417E1;1.334377766E0;-1.728276730E0;2.168782234E0
2.474037016E1;8.868818283E-1;-2.008632660E0;2.999542952E0
2.475703615E1;4.628734589E-1;-2.045229912E0;3.537240982E0
2.477370214E1;1.735787392E-1;-2.000068188E0;3.903754234E0
2.479036813E1;-1.263918877E-1;-1.837731361E0;4.078989029E0
2.480703412E1;-5.149040222E-1;-1.638206482E0;3.636848927E0
2.482370010E1;-6.922721863E-1;-1.434505463E0;3.096932411E0
2.484036610E1;-7.209315300E-1;-1.369254589E0;2.887904406E0
2.485703208E1;-6.164278984E-1;-1.459915638E0;3.042929173E0
2.487369807E1;-6.164073944E-1;-1.830855846E0;3.340442181E0
2.489036406E1;-1.261547565E0;-2.272310734E0;4.082330227E0
2.490703005E1;-1.946720600E0;-2.539330482E0;4.647652626E0
2.492369604E1;-2.609446526E0;-2.655142307E0;4.807599068E0
2.494036203E1;-3.020974159E0;-2.745297909E0;4.752260685E0
2.495702802E1;-3.219655991E0;-2.809885025E0;4.544315338E0
2.497369401E1;-3.398348331E0;-2.849762440E0;4.372214794E0
2.499036000E1;-3.692444801E0;-2.968391180E0;3.875511885E0
2.500702599E1;-4.042246819E0;-3.148469687E0;3.633055687E0
2.502369198E1;-4.283764362E0;-3.336386681E0;3.580169678E0
2.504035797E1;-4.508052826E0;-3.574006796E0;3.751732349E0
2.505702396E1;-4.726247787E0;-4.009030342E0;3.974675655E0
2.507368995E1;-5.022538185E0;-4.276495457E0;4.385711670E0
2.509035594E1;-5.287940025E0;-4.315705299E0;4.376789093E0
2.510702193E1;-5.394198418E0;-4.161896706E0;4.025483608E0
2.512368792E1;-5.344743729E0;-4.001018047E0;3.468268156E0
2.514035391E1;-5.048392296E0;-4.015376091E0;2.931907654E0
2.515701990E1;-4.727820873E0;-4.144232750E0;2.194583893E0
2.517368589E1;-4.254333496E0;-4.367750168E0;1.038373470E0
2.519035188E1;-3.568609715E0;-4.644365311E0;-4.688367844E-1
2.520701786E1;-2.711398602E0;-5.039253712E0;-1.995205164E0
2.522368386E1;-1.877995491E0;-5.436853409E0;-2.722056627E0
2.524034984E1;-9.839406013E-1;-6.311833382E0;-2.229426146E0
2.525701583E1;-6.449742317E-1;-7.104485035E0;-7.839522362E-1
2.527368182E1;-4.625144005E-1;-7.488702297E0;1.251752496E0
2.529034781E1;5.719423294E-2;-6.856473446E0;3.104773998E0
2.530701380E1;1.216567516E0;-5.709555149E0;4.092059135E0
2.532367979E1;2.824731827E0;-4.478980064E0;3.652096272E0
2.534034578E1;3.853144169E0;-3.256551743E0;2.234406233E0
2.535701177E1;4.279823780E0;-2.100918293E0;9.097583294E-1
2.537367776E1;4.515194416E0;-9.951915741E-1;-1.043241024E-1
2.539034375E1;4.739041328E0;3.287982941E-2;-9.843684435E-1
2.540700974E1;4.700570583E0;9.291019440E-1;-1.779732943E0
2.542367573E1;4.428549290E0;1.631160736E0;-2.258083344E0
2.544034172E1;4.133481026E0;2.062929153E0;-2.241228104E0
2.545700771E1;3.739443779E0;2.239803314E0;-1.814836502E0
2.547367370E1;3.009675503E0;2.364140034E0;-1.316018105E0
2.549033969E1;2.298815250E0;2.374136925E0;-5.647872686E-1
2.550700568E1;1.764406204E0;2.313431740E0;3.301143646E-1
2.552367167E1;1.397849083E0;2.345223427E0;1.041991472E0
2.554033766E1;1.475748062E0;2.295823097E0;1.608089924E0
2.555700365E1;1.680794239E0;2.238122463E0;1.939268231E0
2.557366964E1;1.855245590E0;2.324956417E0;1.870197177E0
2.559033563E1;1.952423573E0;2.259584427E0;1.432218313E0
2.560700162E1;2.111172676E0;2.220986366E0;1.118153930E0
2.562366760E1;2.598268032E0;2.116633892E0;8.062437177E-1
2.564033360E1;2.884365082E0;2.276991367E0;4.257876873E-1
2.565699958E1;3.084906578E0;2.521539211E0;-1.902412176E-1
2.567366557E1;3.407462120E0;2.910912514E0;-6.163136959E-1
2.569033156E1;3.428120613E0;3.240384579E0;-1.155001163E0
2.570699755E1;3.140367031E0;3.295793533E0;-1.454394817E0
2.572366354E1;2.807535172E0;3.194485664E0;-1.525631428E0
2.574032953E1;2.806805134E0;2.955296040E0;-1.519830465E0
2.575699552E1;2.958338737E0;2.498761654E0;-1.485795975E0
2.577366151E1;3.205014229E0;1.928815842E0;-1.477755189E0
2.579032750E1;3.385362625E0;1.443651199E0;-1.717315674E0
2.580699349E1;3.607467175E0;1.135529518E0;-2.076433659E0
2.582365948E1;4.056128025E0;1.190822601E0;-2.215024233E0
2.584032547E1;4.693361759E0;1.602277756E0;-1.993346691E0
2.585699146E1;5.213222980E0;1.592168331E0;-2.000181437E0
2.587365745E1;5.300259590E0;1.009876251E0;-2.172941685E0
2.589032344E1;4.795139790E0;5.878248215E-1;-1.689457178E0
2.590698943E1;4.890327930E0;-5.999660492E-2;-1.457520247E0
2.592365542E1;5.237370968E0;-4.959335327E-1;-1.427972317E0
2.594032141E1;5.959986210E0;-6.821317673E-1;-1.737435937E0
2.595698740E1;6.793318748E0;-9.459362030E-1;-1.940644026E0
2.597365339E1;7.008655548E0;-9.260883331E-1;-1.994888186E0
2.599031938E1;6.530025005E0;-5.444412231E-1;-2.028983116E0
2.600698537E1;5.861164093E0;-2.234678268E-1;-2.047582150E0
2.602365136E1;5.064889431E0;-1.864547729E-1;-1.946369052E0
2.604031735E1;4.124286652E0;-4.694328308E-1;-1.564267874E0
2.605698333E1;3.307968616E0;-1.221365929E0;-7.219871283E-1
2.607364932E1;2.476115704E0;-2.133120537E0;4.782872200E-1
2.609031531E1;1.490235329E0;-2.705442905E0;1.669215441E0
2.610698130E1;6.562676430E-1;-2.752875805E0;2.620826960E0
2.612364729E1;7.495307922E-2;-2.407317638E0;3.310794115E0
2.614031328E1;-8.863782883E-2;-1.904638290E0;3.711671114E0
2.615697927E1;-1.627712250E-1;-1.490887165E0;3.738289595E0
2.617364526E1;-3.124837875E-1;-1.302049637E0;3.525578022E0
2.619031125E1;-3.865284920E-1;-1.327942848E0;3.345010281E0
2.620697724E1;-4.564027786E-1;-1.444220066E0;3.359277725E0
2.622364323E1;-6.757512093E-1;-1.680849075E0;3.141078949E0
2.624030922E1;-1.293499470E0;-1.935930252E0;2.821425438E0
2.625697521E1;-1.790207386E0;-2.253686428E0;3.100686073E0
2.627364120E1;-1.929509640E0;-2.433427334E0;3.652524233E0
2.629030719E1;-1.984655857E0;-2.588940620E0;4.050067902E0
2.630697318E1;-2.346135616E0;-2.853883266E0;4.130204201E0
2.632363917E1;-2.879050732E0;-2.997506142E0;4.263121128E0
2.634030516E1;-3.243935108E0;-3.031597376E0;4.498318195E0
2.635697115E1;-3.522204399E0;-2.998211145E0;4.901656151E0
2.637363714E1;-3.827422619E0;-3.081078529E0;5.224363327E0
2.639030313E1;-4.139598370E0;-3.281082392E0;5.256505966E0
2.640696912E1;-4.518373013E0;-3.652189255E0;4.882501602E0
2.642363511E1;-4.981779099E0;-3.964738369E0;4.421607971E0
2.644030110E1;-5.498447418E0;-4.130528450E0;3.784896135E0
2.645696708E1;-5.691367149E0;-4.038111687E0;3.188607931E0
2.647363307E1;-5.283130646E0;-3.718916178E0;2.594288826E0
2.649029906E1;-4.889068604E0;-3.488714457E0;2.061748505E0
2.650696505E1;-4.573037624E0;-3.481369257E0;1.485477924E0
2.652363104E1;-4.153448105E0;-3.629566193E0;9.419119358E-1
2.654029703E1;-3.217148781E0;-4.125438213E0;1.035008430E-1
2.655696302E1;-2.136824608E0;-4.999215126E0;-6.257877350E-1
2.657362901E1;-1.437294006E0;-5.717765331E0;-5.625605583E-1
2.659029500E1;-6.653575897E-1;-6.415846348E0;2.673811913E-1
2.660696099E1;-1.495976448E-1;-6.624377251E0;1.475262165E0
2.662362698E1;2.905325890E-1;-6.301317215E0;3.005784750E0
2.664029297E1;9.693465233E-1;-5.572862625E0;4.086082935E0
2.665695896E1;1.889383316E0;-4.543244362E0;4.074285030E0
2.667362495E1;2.999955654E0;-3.472477913E0;2.875214577E0
2.669029094E1;3.891997337E0;-2.508168697E0;1.459055185E0
2.670695693E1;4.172887325E0;-1.667589188E0;4.279797077E-1
2.672362292E1;4.011950493E0;-9.477663040E-1;-3.972909451E-1
2.674028891E1;3.675115108E0;-4.195537567E-1;-1.175550699E0
2.675695490E1;3.450330734E0;1.490244865E-1;-2.146739006E0
2.677362089E1;3.336620808E0;6.518650055E-1;-2.639024019E0
2.679028688E1;3.248147011E0;1.072240829E0;-2.411072254E0
2.680695286E1;2.968574524E0;1.551602840E0;-1.876737118E0
2.682361886E1;2.461541653E0;1.835239410E0;-1.536645412E0
2.684028485E1;1.931762695E0;1.870772839E0;-9.214239120E-1
2.685695083E1;1.499974251E0;2.003665447E0;-2.565693855E-2
2.687361682E1;1.313176632E0;2.206703663E0;4.579775333E-1
2.689028281E1;1.388091564E0;2.478006363E0;7.471867800E-1
2.690694880E1;1.349817276E0;2.663351536E0;5.695080757E-1
2.692361479E1;1.402433872E0;2.693268776E0;3.298710585E-1
2.694028078E1;1.447399139E0;2.551466942E0;-1.775699854E-1
2.695694677E1;1.313096523E0;2.386667252E0;-7.233868837E-1
2.697361276E1;1.259977818E0;2.335731030E0;-1.006144643E0
2.699027875E1;1.483227730E0;2.278939247E0;-8.193778396E-1
2.700694474E1;1.744281769E0;2.227447033E0;-3.101656437E-1
2.702361073E1;2.055045128E0;2.135956287E0;4.104584455E-2
2.704027672E1;2.237168312E0;2.283670902E0;1.067980528E-1
2.705694271E1;2.274653435E0;2.408169746E0;-1.240851879E-1
2.707360870E1;2.317601681E0;2.394467831E0;-5.042760968E-1
2.709027469E1;2.480720043E0;2.239151478E0;-8.349545598E-1
2.710694068E1;2.764452457E0;2.061347008E0;-1.219086528E0
2.712360667E1;3.161908150E0;1.803451538E0;-1.727482438E0
2.714027266E1;3.654509544E0;1.540637970E0;-2.324733019E0
2.715693865E1;4.003761292E0;1.349333763E0;-2.998655081E0
2.717360464E1;4.370496273E0;1.338952541E0;-3.529622316E0
2.719027063E1;4.792265892E0;1.552602768E0;-3.851763248E0
2.720693662E1;4.940780640E0;1.937950611E0;-4.005572319E0
2.722360260E1;5.200810909E0;1.702971458E0;-4.168665409E0
2.724026860E1;5.232538700E0;7.588014603E-1;-4.241169930E0
2.725693458E1;4.955631256E0;-1.782894135E-2;-3.767665148E0
2.727360057E1;5.213011742E0;-8.547430038E-1;-3.345247984E0
2.729026656E1;5.739501953E0;-1.243555069E0;-3.147206783E0
2.730693255E1;6.371160507E0;-9.753780365E-1;-3.085400581E0
2.732359854E1;6.827846050E0;-5.460367203E-1;-3.031880617E0
2.734026453E1;6.724722385E0;-1.387386322E-1;-2.960124969E0
2.735693052E1;5.986536026E0;-9.812355042E-3;-2.721113920E0
2.737359651E1;5.056846619E0;-1.104087830E-1;-2.327698708E0
2.739026250E1;4.157539845E0;-4.463062286E-1;-1.537440538E0
2.740692849E1;3.425640106E0;-8.953375816E-1;-4.580481052E-1
2.742359448E1;2.699083328E0;-1.453042030E0;7.777719498E-1
2.744026047E1;2.249448299E0;-1.959232807E0;1.127722025E0
2.745692646E1;1.650207043E0;-2.220189095E0;2.120901585E0
2.747359245E1;1.054272175E0;-2.281467438E0;2.844811440E0
2.749025844E1;5.388879776E-1;-2.111367702E0;3.375005245E0
2.750692443E1;2.837543488E-1;-1.892140388E0;3.753904104E0
2.752359042E1;1.181921959E-1;-1.761168003E0;3.926549435E0
2.754025641E1;6.835937500E-3;-1.774760723E0;4.015232563E0
2.755692240E1;-9.994935989E-2;-1.896787643E0;4.063484669E0
2.757358839E1;-2.682447433E-1;-2.018044472E0;4.073109150E0
2.759025438E1;-7.769889832E-1;-2.226930141E0;3.979255438E0
2.760692036E1;-1.240418911E0;-2.451358318E0;3.887930393E0
2.762358636E1;-1.686770916E0;-2.675753117E0;3.954663038E0
2.764025234E1;-2.147348404E0;-2.829664707E0;4.301171303E0
2.765691833E1;-2.496366501E0;-2.724769115E0;4.375030041E0
2.767358432E1;-2.808989525E0;-2.684832096E0;4.516656876E0
2.769025031E1;-3.084520340E0;-2.772143364E0;4.784286976E0
2.770691630E1;-3.497201920E0;-2.720344067E0;4.987892151E0
2.772358229E1;-3.956142426E0;-2.751689672E0;4.680508137E0
2.774024828E1;-4.490779877E0;-2.676601171E0;4.539935112E0
2.775691427E1;-4.838949203E0;-2.593222618E0;4.292389870E0
2.777358026E1;-4.919834614E0;-2.563459873E0;3.878528118E0
2.779024625E1;-4.949390888E0;-2.645186186E0;3.329592466E0
2.780691224E1;-4.920618534E0;-2.960843801E0;2.915012836E0
2.782357823E1;-5.169651985E0;-3.325559139E0;2.930043221E0
2.784024422E1;-5.473377228E0;-3.667509794E0;3.333281040E0
2.785691021E1;-5.352617264E0;-3.968741655E0;3.298085451E0
2.787357620E1;-4.801411629E0;-4.438518524E0;3.005408525E0
2.789024219E1;-3.704235554E0;-5.304715157E0;2.061201811E0
2.790690818E1;-2.919320107E0;-5.931725025E0;6.920886040E-1
2.792357417E1;-2.229660034E0;-6.139754295E0;-3.920900822E-1
2.794024016E1;-1.498864174E0;-6.324961185E0;-8.775453568E-1
2.795690615E1;-7.878065109E-1;-6.176268578E0;-3.305094242E-1
2.797357214E1;-6.231927872E-2;-5.930674553E0;4.385969639E-1
2.799023813E1;6.671171188E-1;-5.656462193E0;9.868211746E-1
2.800690412E1;1.512834072E0;-5.223280907E0;1.291142702E0
2.802357010E1;2.220753193E0;-4.547405243E0;1.105098605E0
2.804023610E1;2.879522800E0;-3.739038467E0;1.104315400E0
2.805690208E1;3.472908497E0;-2.808384895E0;1.150642037E0
2.807356807E1;3.816169739E0;-1.791655540E0;1.088989139E0
2.809023406E1;3.888310909E0;-8.119277954E-1;7.112072706E-1
2.810690005E1;3.725749969E0;-4.916143417E-2;-2.764415741E-2
2.812356604E1;3.278892040E0;5.975484848E-1;-8.656160831E-1
2.814023203E1;2.603624821E0;1.186656475E0;-1.530438423E0
2.815689802E1;1.839583874E0;1.714608669E0;-1.625009418E0
2.817356401E1;1.314323425E0;2.043533325E0;-1.175033569E0
2.819023000E1;8.336639404E-1;2.186090469E0;-4.936335087E-1
2.820689599E1;4.892001152E-1;2.322553635E0;9.690606594E-2
2.822356198E1;1.363916397E-1;2.545571804E0;5.320305824E-1
2.824022797E1;5.948781967E-2;2.674129009E0;8.752927184E-1
2.825689396E1;-1.235818863E-2;2.619394302E0;9.655302763E-1
2.827355995E1;8.640956879E-2;2.334756851E0;1.021742225E0
2.829022594E1;5.282721519E-1;1.948253632E0;1.140428782E0
2.830689193E1;1.141830921E0;1.578067780E0;1.003841400E0
2.832355792E1;2.005287647E0;1.393796921E0;6.460506320E-1
2.834022391E1;2.760562420E0;1.417456627E0;-1.664948463E-2
2.835688990E1;3.425334454E0;1.506441593E0;-2.378571630E-1
2.837355589E1;3.905565262E0;1.686695099E0;-2.177136540E-1
2.839022188E1;4.181817532E0;1.870741367E0;-2.728586197E-1
2.840688786E1;4.428055763E0;2.067506790E0;-5.093151927E-1
2.842355386E1;4.467605591E0;2.147367477E0;-1.271556616E0
2.844021984E1;4.400214195E0;2.114733696E0;-1.962401390E0
2.845688583E1;4.216977119E0;1.919813633E0;-2.485703468E0
2.847355182E1;4.286236286E0;1.497734547E0;-3.013687134E0
2.849021781E1;4.663341999E0;1.103972912E0;-3.475145102E0
2.850688380E1;5.142498016E0;1.050203323E0;-3.957339525E0
2.852354979E1;5.426350594E0;1.265737057E0;-4.572511196E0
2.854021578E1;5.788353920E0;1.333199024E0;-4.938928127E0
2.855688177E1;6.266709805E0;6.093063354E-1;-5.129799366E0
2.857354776E1;5.912039757E0;-1.230401993E-1;-4.525112152E0
2.859021375E1;5.649904251E0;-9.086370468E-1;-3.613825798E0
2.860687974E1;5.874091148E0;-1.556478500E0;-2.698203087E0
2.862354573E1;6.214515209E0;-1.529818535E0;-2.089158058E0
2.864021172E1;6.514576912E0;-1.203351974E0;-1.825178504E0
2.865687771E1;6.398272991E0;-6.280984879E-1;-1.752517343E0
2.867354370E1;5.911160469E0;-2.436599731E-1;-1.763356805E0
2.869020969E1;5.247270107E0;-4.282760620E-2;-1.753051400E0
2.870687568E1;4.546440601E0;1.294422150E-2;-1.748314023E0
2.872354167E1;3.866888523E0;-6.472110748E-2;-1.559190392E0
2.874020766E1;3.193717003E0;-3.860578537E-1;-1.093544960E0
2.875687365E1;2.395656109E0;-7.204494476E-1;-3.997313976E-2
2.877353964E1;1.887310028E0;-1.420767307E0;6.180096865E-1
2.879020563E1;1.200562954E0;-1.721580029E0;1.849699020E0
2.880687162E1;5.889034271E-1;-1.784270287E0;2.879677057E0
2.882353761E1;2.099981308E-1;-1.595473766E0;3.622450829E0
2.884020360E1;2.798843384E-2;-1.349950790E0;4.087007523E0
2.885686958E1;-1.003575325E-1;-1.125413418E0;4.117966175E0
2.887353557E1;-2.077569962E-1;-1.078367233E0;3.972381830E0
2.889020156E1;-3.851251602E-1;-1.195860863E0;3.841006279E0
2.890686755E1;-5.439648628E-1;-1.416954517E0;3.884204865E0
2.892353354E1;-7.410392761E-1;-1.679053783E0;3.985305548E0
2.894019953E1;-1.029052734E0;-1.928703785E0;4.228394508E0
2.895686552E1;-1.272500992E0;-2.258836269E0;4.773639679E0
2.897353151E1;-1.416127205E0;-2.367031097E0;5.023529053E0
2.899019750E1;-1.654396057E0;-2.353034496E0;4.916772842E0
2.900686349E1;-2.012323380E0;-2.325856686E0;4.680354118E0
2.902352948E1;-2.335810184E0;-2.231766701E0;4.840790749E0
2.904019547E1;-2.475926399E0;-2.279492378E0;5.285295010E0
2.905686146E1;-2.637301445E0;-2.561801910E0;5.466544628E0
2.907352745E1;-3.359149933E0;-2.895588160E0;5.148641109E0
2.909019344E1;-3.951269627E0;-3.188232660E0;4.494414330E0
2.910685943E1;-4.659762859E0;-3.297347069E0;3.954905987E0
2.912352542E1;-5.074404716E0;-3.274166107E0;3.324766636E0
2.914019141E1;-5.181177139E0;-3.201865911E0;2.931347847E0
2.915685740E1;-5.187273979E0;-3.153954268E0;2.851553440E0
2.917352339E1;-5.262631416E0;-3.169634104E0;3.036135197E0
2.919018938E1;-5.158342361E0;-3.252037764E0;3.056130886E0
2.920685537E1;-4.714084625E0;-3.390716076E0;2.656294346E0
2.922352136E1;-4.096045017E0;-3.564259052E0;1.658453226E0
2.924018735E1;-3.161918640E0;-4.206620693E0;2.010059357E-1
2.925685333E1;-2.332411289E0;-4.876721382E0;-9.844491482E-1
2.927351932E1;-1.857513905E0;-5.536835194E0;-1.251342773E0
2.929018531E1;-1.565617085E0;-6.229214668E0;-3.952360153E-1
2.930685130E1;-1.441283703E0;-6.554641247E0;1.198437929E0
2.932351729E1;-9.482645988E-1;-6.518074036E0;2.851151466E0
2.934018328E1;-4.132604599E-2;-6.111293316E0;3.802388430E0
2.935684927E1;1.059679985E0;-5.403244019E0;3.507543564E0
2.937351526E1;2.010124683E0;-4.632901192E0;2.091924667E0
2.939018125E1;2.902267933E0;-3.895756721E0;9.212968349E-1
2.940684724E1;3.468495846E0;-2.952465057E0;1.195428371E-1
2.942351323E1;3.867108822E0;-1.992492676E0;-6.825817823E-1
2.944017922E1;4.038983822E0;-1.027945042E0;-1.725899816E0
2.945684521E1;3.858158588E0;-7.018804550E-2;-2.651571274E0
2.947351120E1;3.355590820E0;8.538494110E-1;-2.989352226E0
2.949017719E1;3.062817097E0;1.618742943E0;-2.614923477E0
2.950684318E1;3.008594036E0;2.199289799E0;-1.889848471E0
2.952350917E1;2.721521854E0;2.698663235E0;-1.404276013E0
2.954017516E1;2.295533180E0;2.950506210E0;-1.220234632E0
2.955684115E1;1.930113316E0;2.917797565E0;-9.551143646E-1
2.957350714E1;1.596674442E0;2.747601986E0;-4.926393032E-1
2.959017313E1;1.505445957E0;2.551408768E0;9.025847912E-2
2.960683912E1;1.658032417E0;2.512148380E0;6.380941272E-1
2.962350511E1;1.970280170E0;2.507037163E0;9.762109518E-1
2.964017110E1;2.352816582E0;2.438012600E0;1.127624035E0
2.965683708E1;2.746273041E0;2.329203606E0;1.212460160E0
2.967350307E1;3.172166348E0;2.154360294E0;1.060354233E0
2.969016906E1;3.240500927E0;2.428051472E0;4.727638364E-1
2.970683505E1;3.495473862E0;2.796817303E0;-1.628239751E-1
2.972350104E1;3.659973383E0;3.315588474E0;-5.631474257E-1
2.974016703E1;3.748106480E0;3.602304935E0;-9.476824403E-1
2.975683302E1;3.566405773E0;3.756668568E0;-1.409388542E0
2.977349901E1;3.379597187E0;3.541622639E0;-1.938092470E0
2.979016500E1;3.128514290E0;3.149512768E0;-2.507043839E0
2.980683099E1;3.063232183E0;2.557096481E0;-3.016844034E0
2.982349698E1;3.229457855E0;1.845276356E0;-3.298406124E0
2.984016297E1;3.557003021E0;1.240263939E0;-3.303386688E0
2.985682896E1;4.099517822E0;7.693672180E-1;-3.011122704E0
2.987349495E1;4.542049885E0;7.073478699E-1;-2.311072350E0
2.989016094E1;4.756128311E0;7.866954803E-1;-1.707183599E0
2.990682693E1;4.699413300E0;7.728400230E-1;-1.228850365E0
2.992349292E1;4.714962482E0;2.567710876E-1;-1.087125421E0
2.994015891E1;4.273086071E0;-7.873716354E-1;-1.081653118E0
2.995682490E1;3.546399593E0;-1.463311195E0;-8.950492144E-1
2.997349089E1;3.509639740E0;-2.227323532E0;-1.152355790E0
2.999015688E1;4.039127350E0;-2.507120132E0;-1.512421846E0
3.000682286E1;4.567859173E0;-2.131138802E0;-1.964570642E0
3.002348886E1;4.872921944E0;-1.548076630E0;-2.567218304E0
3.004015484E1;4.620985985E0;-8.539781570E-1;-2.774838448E0
3.005682083E1;3.983968258E0;-3.987016678E-1;-2.968899965E0
3.007348682E1;3.149446964E0;-2.338366508E-1;-2.623236656E0
3.009015281E1;2.125355244E0;-4.007320404E-1;-1.549228668E0
3.010681880E1;1.613971233E0;-7.575407028E-1;-1.174210548E0
3.012348479E1;9.039974213E-1;-1.148726463E0;4.026191235E-1
3.014015078E1;3.348274231E-1;-1.641429424E0;1.261236668E0
3.015681677E1;-1.067028046E-1;-1.958791256E0;2.039563179E0
3.017348276E1;-4.314403534E-1;-2.037123203E0;2.532470465E0
3.019014875E1;-6.612854004E-1;-1.863755226E0;2.967704535E0
3.020681474E1;-7.452158928E-1;-1.654880524E0;3.151513577E0
3.022348073E1;-6.822772026E-1;-1.518292904E0;3.285253525E0
3.024014672E1;-5.850434303E-1;-1.408741951E0;3.347764969E0
3.025681271E1;-4.799671173E-1;-1.474410534E0;3.314796448E0
3.027347870E1;-5.244264603E-1;-1.630605698E0;3.224874973E0
3.029014469E1;-1.005133629E0;-1.875481129E0;3.005323648E0
3.030681068E1;-1.435858250E0;-2.080676556E0;2.850755930E0
3.032347667E1;-2.014860153E0;-2.075541973E0;2.962193489E0
3.034014266E1;-2.527904510E0;-1.942595005E0;3.517426491E0
3.035680865E1;-2.896089077E0;-1.845900536E0;4.038460732E0
3.037347464E1;-3.487832069E0;-1.759432316E0;4.735771656E0
3.039014063E1;-3.865033150E0;-1.902697086E0;4.877344131E0
3.040680662E1;-4.302000999E0;-1.971610785E0;4.253130436E0
3.042347260E1;-4.829508305E0;-1.990576982E0;3.173412085E0
3.044013860E1;-5.113671780E0;-2.015396118E0;2.415958405E0
3.045680458E1;-5.069358349E0;-2.039288521E0;2.062397957E0
3.047347057E1;-4.737004280E0;-2.198171854E0;2.012304544E0
3.049013656E1;-4.307589054E0;-2.550752640E0;1.915807009E0
3.050680255E1;-4.074659348E0;-2.860008478E0;1.510805368E0
3.052346854E1;-3.949872971E0;-3.066423655E0;1.152794123E0
3.054013453E1;-3.715246201E0;-3.172404766E0;1.074877501E0
3.055680052E1;-3.382035732E0;-3.367065907E0;1.250119448E0
3.057346651E1;-3.118856430E0;-3.584462166E0;1.700366735E0
3.059013250E1;-2.564086914E0;-3.739300251E0;1.743760347E0
3.060679849E1;-1.722987175E0;-3.914309025E0;1.173011541E0
3.062346448E1;-7.680897713E-1;-4.311172962E0;2.280430794E-1
3.064013047E1;-1.311054230E-1;-4.667036533E0;-2.726292610E-2
3.065679646E1;8.567624092E-1;-5.239990711E0;6.616587639E-1
3.067346245E1;1.733249664E0;-6.135745525E0;1.291465044E0
3.069012844E1;1.263340473E0;-5.700585365E0;1.767378807E0
3.070679443E1;1.176150799E0;-4.906050205E0;1.934457898E0
3.072346042E1;1.414545536E0;-3.818972588E0;2.445278883E0
3.074012641E1;2.137667656E0;-2.929482460E0;2.278226614E0
3.075679240E1;2.334167004E0;-1.847861290E0;1.437273860E0
3.077345839E1;2.403274059E0;-1.096839905E0;5.879226923E-1
3.079012438E1;2.280418396E0;-4.680161476E-1;2.009042501E-1
3.080679036E1;2.043251514E0;9.660100937E-2;-2.419049740E-1
3.082345636E1;1.934215546E0;5.142221451E-1;-7.439481020E-1
3.084012234E1;1.906896114E0;7.358813286E-1;-9.849139452E-1
3.085678833E1;1.616477489E0;7.568187714E-1;-7.526050806E-1
3.087345432E1;1.114990234E0;7.911796570E-1;-3.252806664E-1
3.089012031E1;9.117136002E-1;9.142193794E-1;1.052879095E-1
3.090678630E1;9.020376205E-1;1.131840706E0;8.185017109E-1
3.092345229E1;9.657139778E-1;1.387820244E0;1.654328823E0
3.094011828E1;8.188643456E-1;1.737779140E0;1.836422324E0
3.095678427E1;6.036229134E-1;2.087462902E0;1.288441658E0
3.097345026E1;6.029400826E-1;2.416854382E0;6.878252029E-1
3.099011625E1;1.179720879E0;2.543912888E0;2.739745378E-1
3.100678224E1;1.619165897E0;2.606358051E0;4.141461849E-2
3.102344823E1;1.898951054E0;2.517966270E0;-2.764592171E-1
3.104011422E1;2.150720596E0;2.359978199E0;-4.783418179E-1
3.105678021E1;2.351282597E0;2.306068420E0;-5.237730742E-1
3.107344620E1;2.674689293E0;2.223304749E0;-3.897640705E-1
3.109011219E1;3.057701588E0;2.223606110E0;7.025277615E-2
3.110677818E1;3.318250179E0;2.268274784E0;2.169637680E-1
3.112344417E1;3.450813770E0;2.433985233E0;2.378032207E-1
3.114011016E1;3.600558519E0;2.651292801E0;1.682531834E-1
3.115677615E1;3.610723972E0;2.856588840E0;1.530802250E-2
3.117344214E1;3.618791342E0;2.712430954E0;-3.545657396E-1
3.119010813E1;3.759981871E0;2.196459770E0;-7.170965672E-1
3.120677412E1;3.744705439E0;1.657919884E0;-1.055330157E0
3.122344010E1;3.927627802E0;1.178231716E0;-1.300306320E0
3.124010610E1;4.249864578E0;1.034455776E0;-1.450378537E0
3.125677208E1;4.771206379E0;1.120131016E0;-1.752117991E0
3.127343807E1;5.142282486E0;1.460133076E0;-1.871586084E0
3.129010406E1;5.189104080E0;1.761535645E0;-1.913567543E0
3.130677005E1;4.814406395E0;1.777018070E0;-1.932139397E0
3.132343604E1;4.523793697E0;1.093148708E0;-1.723072529E0
3.134010203E1;4.275477409E0;4.663944244E-2;-1.179880500E0
3.135676802E1;4.096895695E0;-8.655529022E-1;-7.807669640E-1
3.137343401E1;4.661611557E0;-1.963233948E0;-8.097373843E-1
3.139010000E1;5.146763802E0;-2.243097305E0;-8.695949912E-1
3.140676599E1;5.789196968E0;-1.666895866E0;-1.457746506E0
3.142343198E1;6.174342155E0;-4.408264160E-1;-2.102293015E0
3.144009797E1;6.006511211E0;6.714491844E-1;-2.944671392E0
3.145676396E1;5.114723206E0;1.183014870E0;-3.577926874E0
3.147342995E1;4.040524960E0;9.632191658E-1;-3.573050022E0
3.149009594E1;3.146781921E0;3.138279915E-1;-2.510171890E0
3.150676193E1;2.487897873E0;-6.326904297E-1;-9.616506100E-1
3.152342792E1;1.847539425E0;-1.370945930E0;8.637771606E-1
3.154009391E1;1.583431244E0;-1.911658764E0;1.473704338E0
3.155675990E1;1.146663189E0;-1.831598282E0;2.295463085E0
3.157342589E1;8.045873642E-1;-1.686079025E0;2.601363897E0
3.159009188E1;4.787178040E-1;-1.421267033E0;2.784873962E0
3.160675787E1;2.896986008E-1;-1.266898155E0;2.820358515E0
3.162342386E1;1.420464516E-1;-1.220929146E0;2.840529680E0
3.164008985E1;-2.392292023E-2;-1.353833199E0;2.716718435E0
3.165675583E1;-2.636356354E-1;-1.569432259E0;2.756089449E0
3.167342182E1;-5.510044098E-1;-1.824494839E0;3.059000731E0
3.169008781E1;-7.736320496E-1;-2.253115654E0;3.563147545E0
3.170675380E1;-8.677988052E-1;-2.906515121E0;3.702360153E0
3.172341979E1;-1.309020042E0;-3.164054394E0;3.614428520E0
3.174008578E1;-1.867900848E0;-3.219989777E0;3.821480274E0
3.175675177E1;-2.334645271E0;-2.708068371E0;4.380885124E0
3.177341776E1;-2.274958134E0;-2.521720886E0;4.697158337E0
3.179008375E1;-2.311848164E0;-2.448071003E0;4.820839882E0
3.180674974E1;-2.658036709E0;-2.598611832E0;4.431807041E0
3.182341573E1;-3.133679390E0;-2.849987030E0;3.784723282E0
3.184008172E1;-3.603958607E0;-2.950434208E0;3.347081900E0
3.185674771E1;-4.128822327E0;-3.003992796E0;3.131375313E0
3.187341370E1;-4.458954811E0;-3.072176456E0;3.190465689E0
3.189007969E1;-4.479989052E0;-3.276729822E0;3.610823631E0
3.190674568E1;-4.517126083E0;-3.502862930E0;3.871112585E0
3.192341167E1;-4.617072105E0;-3.728423595E0;3.827262640E0
3.194007766E1;-4.941023827E0;-3.890897274E0;3.680521011E0
3.195674365E1;-5.279861450E0;-3.906507254E0;3.786007404E0
3.197340964E1;-5.133760929E0;-3.903714657E0;4.046390533E0
3.199007563E1;-4.202894211E0;-4.206468582E0;3.800753355E0
3.200674162E1;-3.022874832E0;-4.835583687E0;2.454559326E0
3.202340760E1;-2.321987152E0;-5.406393051E0;9.398140907E-1
3.204007360E1;-1.818229675E0;-5.933246136E0;6.736469269E-2
3.205673958E1;-1.318354130E0;-6.522733212E0;1.376624107E-1
3.207340557E1;-1.133265495E0;-6.648799419E0;1.341674328E0
3.209007156E1;-6.708827019E-1;-6.535431385E0;2.847437143E0
3.210673755E1;1.851420403E-1;-5.894898415E0;3.883885384E0
3.212340354E1;1.089202881E0;-5.049380302E0;3.900995255E0
3.214006953E1;1.980869770E0;-4.254563332E0;2.773346901E0
3.215673552E1;2.851650715E0;-3.662226677E0;1.278559327E0
3.217340151E1;3.368978977E0;-2.835800648E0;4.376173019E-3
3.219006750E1;3.779708862E0;-1.875496387E0;-1.020704985E0
3.220673349E1;4.065025330E0;-8.786859512E-1;-2.054691553E0
3.222339948E1;4.168622971E0;-7.637214661E-2;-2.993740082E0
3.224006547E1;3.886148930E0;6.499805450E-1;-3.302299500E0
3.225673146E1;3.515007019E0;1.262654781E0;-3.070177555E0
3.227339745E1;3.017950058E0;1.688483238E0;-2.387332678E0
3.229006344E1;2.451313972E0;1.830762863E0;-1.599908948E0
3.230672943E1;1.914457321E0;2.025521278E0;-5.283423662E-1
3.232339542E1;1.673881531E0;1.960723877E0;2.037428617E-1
3.234006141E1;1.329662323E0;2.027238846E0;8.472832441E-1
3.235672740E1;1.239821434E0;1.970211506E0;1.169736743E0
3.237339339E1;1.313006878E0;1.865913868E0;1.341982007E0
3.239005938E1;1.563243866E0;1.772300243E0;1.418480039E0
3.240672536E1;1.851966858E0;1.724836349E0;1.102323532E0
3.242339136E1;2.087840557E0;1.791859627E0;8.866698742E-1
3.244005734E1;2.382890224E0;1.832839012E0;7.578939199E-1
3.245672333E1;2.701232433E0;2.107885361E0;5.245092511E-1
3.247338932E1;2.972545624E0;2.305232048E0;6.877493858E-2
3.249005531E1;2.989103317E0;2.634638309E0;-8.267867565E-2
3.250672130E1;3.118277550E0;2.896725178E0;-2.067323923E-1
3.252338729E1;3.455836773E0;2.914453506E0;-5.698875189E-1
3.254005328E1;3.485113144E0;2.806864262E0;-8.548665643E-1
3.255671927E1;3.524401188E0;2.547605515E0;-1.173241854E0
3.257338526E1;3.744767904E0;2.101565838E0;-1.650519967E0
3.259005125E1;4.069899559E0;1.722806454E0;-2.261335850E0
3.260671724E1;4.539957523E0;1.360157967E0;-2.852578640E0
3.262338323E1;4.961793900E0;1.332733154E0;-3.256857872E0
3.264004922E1;5.365993023E0;1.611989498E0;-3.236283064E0
3.265671521E1;5.608127594E0;1.943315029E0;-2.952708960E0
3.267338120E1;5.483318329E0;2.008334160E0;-2.940638065E0
3.269004719E1;5.488358498E0;1.304329395E0;-3.059062243E0
3.270671318E1;5.098086357E0;3.535680771E-1;-2.452773333E0
3.272337917E1;5.065747261E0;-4.629135132E-1;-1.932388067E0
3.274004516E1;5.549354553E0;-1.293007851E0;-1.774648309E0
3.275671115E1;6.062377930E0;-1.061343193E0;-1.854159713E0
3.277337714E1;6.699958324E0;-4.476022720E-1;-2.335567474E0
3.279004313E1;6.747846603E0;3.759613037E-1;-2.634545088E0
3.280670912E1;6.140559673E0;9.670372009E-1;-3.018580198E0
3.282337510E1;5.165947437E0;9.036202431E-1;-3.125101328E0
3.284004110E1;3.955666542E0;3.129024506E-1;-2.608133316E0
3.285670708E1;3.058025837E0;-5.439043045E-1;-1.633604765E0
3.287337307E1;2.499091148E0;-1.533443451E0;-4.329496622E-1
3.289003906E1;1.823935032E0;-2.223799229E0;6.822876930E-1
3.290670505E1;1.378547192E0;-2.414836407E0;1.563232660E0
3.292337104E1;9.653420448E-1;-2.222415447E0;2.009316683E0
3.294003703E1;6.794648170E-1;-1.789545536E0;2.259310961E0
3.295670302E1;4.513201714E-1;-1.444629192E0;2.398905993E0
3.297336901E1;2.606658936E-1;-1.184251785E0;2.696402550E0
3.299003500E1;1.458754539E-1;-1.059410572E0;2.880941153E0
3.300670099E1;3.590011597E-2;-1.159001827E0;3.007190228E0
3.302336698E1;-1.500082016E-1;-1.446300030E0;3.170775890E0
3.304003297E1;-4.436306953E-1;-1.804339409E0;3.384134293E0
3.305669896E1;-6.311855316E-1;-2.128000259E0;3.720693827E0
3.307336495E1;-6.920852661E-1;-2.413325787E0;4.021552563E0
3.309003094E1;-7.557516098E-1;-2.715287685E0;3.984806538E0
3.310669693E1;-1.121844292E0;-3.110337257E0;4.396071911E0
3.312336292E1;-1.426808834E0;-3.081750393E0;5.077891350E0
3.314002891E1;-1.586050034E0;-3.049086571E0;5.434444427E0
3.315669490E1;-1.929313183E0;-2.981152058E0;5.692831516E0
3.317336089E1;-2.217302322E0;-3.040420055E0;5.667686462E0
3.319002688E1;-2.481684685E0;-3.165692329E0;5.608709335E0
3.320669286E1;-2.972128868E0;-3.353246927E0;5.323917389E0
3.322335886E1;-3.732430935E0;-3.558635473E0;4.653168678E0
3.324002484E1;-4.477187634E0;-3.592828751E0;3.960672617E0
3.325669083E1;-5.114967346E0;-3.631187677E0;3.365205765E0
3.327335682E1;-5.695823669E0;-3.648601055E0;3.090607643E0
3.329002281E1;-5.808418274E0;-3.597544432E0;3.462951660E0
3.330668880E1;-5.839806557E0;-3.436588049E0;4.122976303E0
3.332335479E1;-5.763222694E0;-3.602786541E0;4.236965656E0
3.334002078E1;-5.592070580E0;-3.979861736E0;3.607577801E0
3.335668677E1;-4.958584785E0;-4.307064056E0;2.274808884E0
3.337335276E1;-3.946108341E0;-4.944880962E0;3.886761665E-1
3.339001875E1;-3.174880505E0;-5.409949303E0;-1.420351744E0
3.340668474E1;-2.808552742E0;-5.692428112E0;-2.314776897E0
3.342335073E1;-2.248299122E0;-6.407322407E0;-1.915134430E0
3.344001672E1;-1.852124214E0;-6.835865974E0;-4.001183510E-1
3.345668271E1;-1.172141075E0;-7.100931644E0;1.131793022E0
3.347334870E1;-1.353478432E-1;-6.805066109E0;2.444785357E0
3.349001469E1;1.019054890E0;-6.162806511E0;2.856940985E0
3.350668068E1;2.176595688E0;-5.346194744E0;2.461907148E0
3.352334667E1;3.228582382E0;-4.398663044E0;1.810866475E0
3.354001266E1;4.116035938E0;-3.285075665E0;1.140359640E0
3.355667865E1;4.650055408E0;-2.150366783E0;2.463308573E-1
3.357334464E1;4.763081074E0;-1.032453537E0;-1.020713687E0
3.359001063E1;4.747885704E0;-7.950973511E-2;-2.128976822E0
3.360667662E1;4.456439972E0;7.644057274E-1;-2.705067396E0
3.362334261E1;4.022877693E0;1.422060966E0;-2.634786844E0
3.364000860E1;3.601767063E0;1.799915314E0;-2.095962048E0
3.365667458E1;3.025061607E0;1.963643074E0;-1.258221030E0
3.367334057E1;2.488779068E0;2.001785755E0;-4.618004560E-1
3.369000656E1;2.045296669E0;2.099438190E0;2.796084881E-1
3.370667255E1;1.700014114E0;2.171723843E0;8.079748750E-1
3.372333854E1;1.465724945E0;2.294855595E0;1.120693922E0
3.374000453E1;1.272352695E0;2.373176098E0;1.405116916E0
3.375667052E1;1.489893913E0;2.263475418E0;1.531696677E0
3.377333651E1;1.812648773E0;2.070068359E0;1.576342821E0
3.379000250E1;2.065255165E0;2.085194588E0;1.327842355E0
3.380666849E1;2.361918926E0;2.216217995E0;7.450414896E-1
3.382333448E1;2.688820839E0;2.392580986E0;1.244506836E-1
3.384000047E1;2.942996025E0;2.621129513E0;-1.416778564E-1
3.385666646E1;3.132450581E0;2.816154957E0;-3.105297089E-1
3.387333245E1;3.462229013E0;2.821382523E0;-3.654927015E-1
3.388999844E1;3.564107656E0;2.786093712E0;-5.015127659E-1
3.390666443E1;3.532394886E0;2.592941284E0;-7.400708199E-1
3.392333042E1;3.528074026E0;2.269124031E0;-8.912869692E-1
3.393999641E1;3.742052794E0;1.795924187E0;-1.098782539E0
3.395666240E1;4.001436234E0;1.409837246E0;-1.503814220E0
3.397332839E1;4.433027744E0;1.303594589E0;-2.251000166E0
3.398999438E1;4.865475655E0;1.429689407E0;-3.093622446E0
3.400666036E1;5.135275841E0;1.758056641E0;-3.608076096E0
3.402332636E1;5.317684174E0;2.022704124E0;-3.889642477E0
3.403999234E1;5.068505764E0;2.260714531E0;-3.936175823E0
3.405665833E1;4.872249126E0;2.021792889E0;-3.822688580E0
3.407332432E1;4.857097149E0;9.003839493E-1;-3.607474566E0
3.408999031E1;4.339077950E0;-2.682456970E-1;-2.899386883E0
3.410665630E1;4.475799084E0;-1.933001518E0;-2.382339001E0
3.412332229E1;4.925287724E0;-3.076088905E0;-1.477745533E0
3.413998828E1;5.585547447E0;-2.799428940E0;-8.259884119E-1
3.415665427E1;6.388612270E0;-1.457608223E0;-7.752579451E-1
3.417332026E1;6.450722694E0;4.152393341E-2;-1.576750398E0
3.418998625E1;5.817919254E0;9.315819740E-1;-2.219916344E0
3.420665224E1;4.690968037E0;8.884129524E-1;-2.668022633E0
3.422331823E1;3.402548313E0;8.714294434E-2;-2.280143499E0
3.423998422E1;2.272586823E0;-9.726886749E-1;-1.236762762E0
3.425665021E1;1.438948631E0;-2.147349834E0;-8.287799358E-2
3.427331620E1;1.050071716E0;-2.986818790E0;1.314498663E0
3.428998219E1;8.185796738E-1;-3.180004597E0;2.635417461E0
3.430664818E1;7.069973946E-1;-3.044202328E0;3.797882080E0
3.432331417E1;4.460587502E-1;-2.595862865E0;4.583307266E0
3.433998016E1;5.637311935E-2;-2.052187920E0;4.200628281E0
3.435664615E1;-3.023900986E-1;-1.655855179E0;3.491676807E0
3.437331214E1;-7.022294998E-1;-1.594055176E0;2.930459976E0
3.438997813E1;-1.163032532E0;-1.671926022E0;2.785206556E0
3.440664412E1;-1.369647980E0;-1.762639999E0;2.850247622E0
3.442331010E1;-1.531313419E0;-1.822237015E0;3.026307821E0
3.443997610E1;-1.793663025E0;-2.365374565E0;2.661276579E0
3.445664208E1;-2.293566704E0;-3.089172363E0;2.397595167E0
3.447330807E1;-2.306618690E0;-3.454017162E0;1.964087725E0
