Time (s);Acceleration x (m/s^2);Acceleration y (m/s^2);Acceleration z (m/s^2)
6.850000045e-05;-1.765279083;8.104596405;5.068609772
0.0164005;-1.771116943;8.169710999;5.110821991
0.0327325;-1.786834259;8.244255981;5.0735495
0.0490645;-1.822759552;8.197403412;5.093757477
0.0653975;-1.80075531;8.204738159;5.069058838
0.08173204167;-1.787283325;8.218210144;5.01966156
0.09806304167;-1.785786438;8.202043762;5.003794556
0.1143950417;-1.797611847;8.195607147;5.009931793
0.1307280417;-1.795067139;8.272846527;5.021607513
0.1470600417;-1.819765778;8.295000458;5.025649109
0.1633920417;-1.777553558;8.243657227;5.042114868
0.1797230417;-1.783541107;8.224646759;5.023703156
0.1960560417;-1.772464142;8.227191467;5.038522339
0.2123880417;-1.806293793;8.191266174;5.045108643
0.2287200417;-1.804497528;8.177494812;5.014272766
0.2450520417;-1.78907959;8.210276642;4.999154205
0.2613850417;-1.791773987;8.229736176;4.991370392
0.2777170417;-1.795965271;8.185128937;4.974605255
0.2940480417;-1.803000641;8.17300415;4.98807724
0.3103800417;-1.891466675;8.165819092;4.938679962
0.3267130417;-1.846110992;8.182733917;4.91203537
0.3430450417;-1.827399902;8.129893799;4.897515564
0.3593770417;-1.735790405;8.149503021;4.900209961
0.3757080417;-1.67905838;8.279133453;4.962630157
0.3920420417;-1.565145264;8.349487152;4.946164398
0.4083730417;-1.476080475;8.389154663;4.867727509
0.4247050417;-1.441203003;8.409662018;4.686005402
0.4410370417;-1.397942963;8.333171082;4.605323181
0.4573700417;-1.433568878;8.248447266;4.627327423
0.4737020417;-1.526525574;8.202792206;4.667743378
0.4900330417;-1.672322388;8.165669403;4.7470784
0.5063650417;-1.846260681;8.068371735;4.818330231
0.5226980417;-2.074236603;8.069868622;4.803361359
0.5390300417;-2.405946808;8.2174617;4.809797974
0.5553620417;-2.563718719;8.299491119;4.774621124
0.5716940417;-2.692001953;8.385562134;4.841232605
0.5880270417;-2.743494873;8.455915833;4.793182526
0.6043580417;-2.794688416;8.488098907;4.719835052
0.6206900417;-2.802621918;8.478219452;4.565056915
0.6370220417;-2.760709076;8.35442688;4.504432983
0.6533550417;-2.697540436;8.348439331;4.528383179
0.6696870417;-2.705623627;8.445587311;4.505181427
0.6860180417;-2.764002228;8.491841125;4.434228973
0.7023500417;-2.784509583;8.476273499;4.335733795
0.7186830417;-2.751128998;8.494236145;4.207001495
0.7350150417;-2.646646271;8.59662323;4.124223633
0.7513470417;-2.446362762;8.696615295;4.076323242
0.7676790417;-2.291135559;8.776100006;4.070186005
0.7840120417;-2.25236618;8.798104248;4.080813904
0.8003430417;-2.187850342;8.701405334;4.047133942
0.8166750417;-2.271825714;8.597072296;3.989653473
0.8330070417;-2.376009064;8.543633423;3.936663666
0.8493400417;-2.410736847;8.63060257;3.962859192
0.8656720417;-2.44666214;8.662935333;4.046235809
0.8820040417;-2.456691284;8.752598877;4.103117523
0.8983350417;-2.398162994;8.705147552;4.113595734
0.9146680417;-2.279459839;8.618028717;4.098626862
0.9310000417;-2.278262329;8.516839142;4.183799744
0.9473320417;-2.29218338;8.52641922;4.298161926
0.9636640417;-2.384391632;8.584797821;4.374802551
0.9799970417;-2.462080078;8.553812256;4.385879517
0.9963280417;-2.581531677;8.554111633;4.465364227
1.012660042;-2.674338684;8.549920349;4.374203796
1.028992042;-2.698438568;8.520880737;4.276157684
1.045325042;-2.715353394;8.411158905;4.20879776
1.061657042;-2.696492615;8.376730499;4.209845581
1.0779855;-2.698139191;8.419691162;4.230502625
1.0943165;-2.571652222;8.432115326;4.185596008
1.1106495;-2.408641205;8.40352478;4.199666748
1.1269815;-2.262844391;8.44798233;4.278103638
1.1433135;-2.136357422;8.497678986;4.293970642
1.1596455;-2.04878952;8.530610504;4.335883484
1.1759785;-1.949994965;8.532706146;4.388873291
1.1923105;-1.891017609;8.533604279;4.420457611
1.2086415;-1.91197403;8.543633423;4.397704926
1.2249735;-2.005379791;8.561296692;4.355792084
1.2413065;-2.067051544;8.591084747;4.207749939
1.2576385;-2.201172638;8.590336304;4.051923981
1.2739705;-2.154320068;8.606203308;3.926185455
1.2903015;-2.046693878;8.576564941;3.965254211
1.3066345;-1.916764069;8.563242645;4.034111023
1.3229665;-1.916764069;8.522227936;4.148622894
1.3392985;-2.071542206;8.474028168;4.336033173
1.3556305;-2.304607544;8.261769562;4.476890259
1.3719635;-2.60697876;8.153544617;4.456981659
1.3882955;-2.51686615;8.305927734;4.452041931
1.4046265;-2.287692719;8.602910156;4.395609283
1.4209585;-2.061962128;8.851393433;4.333039398
1.4372915;-1.947749634;8.971144409;4.290976868
1.4536235;-1.900298309;8.956624603;4.255800018
1.4699555;-1.946252747;8.778944092;4.173620911
1.4862865;-2.14833252;8.521928558;4.08949585
1.5026195;-2.339634705;8.380772095;3.992048492
1.5189515;-2.396965485;8.411607971;3.92214386
1.5352835;-2.400558014;8.56623642;3.76886261
1.5516155;-2.45833786;8.703351288;3.653751984
1.5679485;-2.578687592;8.759933624;3.573967896
1.5842805;-2.684667206;8.759334869;3.609144745
1.6006115;-2.701282654;8.747808838;3.715423737
1.6169435;-2.559826813;8.809480591;3.77350296
1.6332765;-2.505489807;8.716823273;3.840713196
1.6496085;-2.243534546;8.708141327;3.852987671
1.6659405;-2.039359131;9.009764099;3.92334137
1.6822715;-1.813778229;9.036408691;3.949686584
1.6986055;-1.73519165;8.74286911;3.98411499
1.7149365;-1.792073364;8.551566925;4.058809662
1.7337815;-2.115401001;8.503965912;4.107458496
1.7488575;-2.394271088;8.600964203;4.089944916
1.7639335;-2.516267395;8.619525604;4.002676392
1.7790095;-2.622097321;8.618477783;3.946094055
1.7940845;-2.622995453;9.030271454;3.951931915
1.8091605;-2.455643463;9.153016205;3.733835449
1.8242365;-2.358794861;8.578660583;3.409459991
1.8393125;-2.431244202;8.530460815;3.521726532
1.8543885;-2.354453888;8.988508301;3.710184631
1.8694635;-2.512076111;8.550219727;3.685485992
1.8845395;-2.369722137;8.867410126;3.902384949
1.8996155;-2.65487915;8.256530457;3.608695679
1.9146915;-2.81055542;8.901090088;3.908971252
1.9297665;-2.717598724;8.422984314;3.694317627
1.9448425;-3.03404068;8.666228485;3.725452881
1.9599185;-2.957699432;8.479416962;3.982318726
1.9749945;-2.901117096;8.577163696;4.305796051
1.9900705;-2.958896942;8.34155365;4.454586639
2.0051455;-2.899171143;8.475225677;4.474495239
2.0202215;-2.7590625;8.640482025;4.274511108
2.0352975;-2.663710785;8.477620697;4.237088928
2.0503735;-2.891986084;8.103698273;4.169130249
2.0654485;-2.862198029;8.273145905;4.001778259
2.080524375;-2.678529968;8.410410461;3.707639923
2.095600375;-2.518512726;8.511749725;3.41784256
2.110676375;-2.340682526;8.572373657;3.164419556
2.125752375;-2.310295715;8.796158295;3.211122437
2.140827375;-2.196831665;9.326355743;3.502416687
2.155903375;-2.173480225;9.630074158;3.563639374
2.170979375;-2.082918549;9.755812683;3.478167114
2.186055375;-2.088157654;9.31857193;3.379671936
2.201130375;-2.15297287;8.891060944;3.353326721
2.216206375;-2.242337036;8.650960236;3.394341431
2.231282375;-2.345023499;8.562344513;3.406765594
2.246358375;-2.490371246;8.550668793;3.426973572
2.261434375;-2.683619385;8.64572113;3.468886414
2.276509375;-2.769091644;8.759634247;3.561394043
2.291585375;-2.777623901;8.826096039;3.601660309
2.306661375;-2.665357361;8.737929382;3.658991089
2.321737375;-2.622097321;8.71008728;3.655248871
2.336812375;-2.5613237;8.680149536;3.660637665
2.351888375;-2.548151093;8.763825531;3.632496185
2.366964375;-2.564467163;8.839568024;3.61558136
2.382040375;-2.538121948;8.839118958;3.54417984
2.397116375;-2.441123657;8.826395416;3.475772095
2.412191375;-2.348166962;8.814570007;3.432062988
2.427267375;-2.325563965;8.781189423;3.404520264
2.442343375;-2.298470306;8.756341095;3.456162872
2.457419375;-2.287842407;8.785530396;3.490591278
2.472494375;-2.358794861;8.833281097;3.520079956
2.487570375;-2.419568481;8.878487091;3.562591553
2.502646375;-2.434387665;8.87160141;3.589685211
2.517722375;-2.44546463;8.889863434;3.620820465
2.532798375;-2.415975952;8.920100555;3.613934784
2.547873375;-2.386038208;8.951535187;3.648662567
2.562949375;-2.294877777;8.922645264;3.740571442
2.578025375;-2.314337311;8.820856934;3.679498444
2.593101375;-2.334994354;8.808283081;3.729494476
2.608177375;-2.357297974;8.74750946;3.695664825
2.623252375;-2.331701202;8.729397125;3.733236694
2.638328375;-2.325264587;8.743018799;3.784280548
2.653404375;-2.294129333;8.797954559;3.824247437
2.668480375;-2.242187347;8.820557556;3.82619339
2.683555375;-2.167642365;8.800349579;3.830234985
2.698631375;-2.145787811;8.763675842;3.832929382
2.713707375;-2.139800262;8.735534363;3.838767242
2.728783375;-2.125280457;8.730444946;3.823349304
2.743859375;-2.157912598;8.678053894;3.840563507
2.758934375;-2.221380615;8.661288757;3.793561249
2.774010375;-2.276765442;8.718170471;3.745361481
2.789086375;-2.290536804;8.755143585;3.736380157
2.804162375;-2.28634552;8.744365997;3.766018524
2.819237375;-2.253713379;8.788075104;3.746409302
2.834313375;-2.28634552;8.842861176;3.758683777
2.849389375;-2.253863068;8.83762207;3.766617279
2.864465375;-2.199675751;8.796307983;3.791764984
2.879541375;-2.177671509;8.771160278;3.818110199
2.894616375;-2.218087463;8.712182922;3.860472107
2.909692375;-2.281854858;8.635093231;3.894900513
2.924768375;-2.352058868;8.571924591;3.905378723
2.939844375;-2.43723175;8.598718872;3.911665649
2.954919375;-2.457888794;8.689130859;3.896846466
2.969995375;-2.411634979;8.68089798;3.907773743
2.985071375;-2.330653381;8.746761017;3.839216309
3.000147375;-2.276765442;8.744665375;3.855083313
3.015223375;-2.206411743;8.758586426;3.886517944
3.030298375;-2.177372131;8.767567749;3.933669891
3.045374375;-2.179318085;8.775950317;3.974983978
3.060450375;-2.178120575;8.738528137;4.003574524
3.075527;-2.155816956;8.733588409;4.067790985
3.090602;-2.127675476;8.741821289;4.12811554
3.105678;-2.148033142;8.723708954;4.193230133
3.120754;-2.207160187;8.805738373;4.228107605
3.13583;-2.288590851;8.801547089;4.082759857
3.150906;-2.264640656;8.694968719;3.993844757
3.165981;-2.277064819;8.612939301;3.980971527
3.181057;-2.366279297;8.643924866;4.051624603
3.196133;-2.468666382;8.669521637;4.209546204
3.211209;-2.522554321;8.513096924;4.181105347
3.226284;-2.53437973;8.30877182;4.21463562
3.24136;-2.515968018;8.272247772;4.351451111
3.256436;-2.617906036;8.509803772;4.479434967
3.271512;-2.46073288;8.692424011;4.530329132
3.286588;-2.196681976;8.795409851;4.403542786
3.301663;-2.020348663;8.839418335;4.303999786
3.316739;-1.953737183;8.738827515;4.229454803
3.331815;-1.89086792;8.618926849;4.22631134
3.346891;-1.95987442;8.733438721;4.15146698
3.363222;-1.998194733;8.813821564;4.006717987
3.379554;-1.988614655;8.724457397;3.961661682
3.395886;-1.885928192;8.575367432;3.949387207
3.412219;-1.866169281;8.664581909;3.866908722
3.428551;-1.940265198;8.703650665;3.992647247
3.444883;-2.002086639;8.63524292;4.173620911
3.461214;-1.991758118;8.644673309;4.345014496
3.477547;-1.924398193;8.538693695;4.406087494
3.493879;-1.964814148;8.468938751;4.501439209
3.510211;-1.905836792;8.31116684;4.659211121
3.526543;-1.71184021;8.136629791;4.881498871
3.542876;-1.627864838;8.01628006;5.029091949
3.559208;-1.639390869;7.948022003;5.240751801
3.575539;-1.521585846;7.758965149;5.210963745
3.591871;-1.446591797;7.811206512;5.173990631
3.608204;-1.379231873;7.978708191;5.132377167
3.624536;-1.319356384;8.15085022;5.124593353
3.640868;-1.338067474;8.325087891;5.095853119
3.6572;-1.472937012;8.494535522;5.049000549
3.673533;-1.667532349;8.53689743;4.984035645
3.689864;-1.826801147;8.474477234;4.818030853
3.706196;-1.88263504;8.318501587;4.769980774
3.722528;-1.940714264;8.229736176;4.753065948
3.738861;-2.019300842;8.250991974;4.772226105
3.755193;-2.099983063;8.22689209;4.815935211
3.771524;-2.103276215;8.277786255;4.833448792
3.787856;-2.076481934;8.299940186;4.828509064
3.804189;-1.978735199;8.26895462;4.804858246
3.820521;-1.856289825;8.201295319;4.839586029
3.836853;-1.782792664;8.186775513;4.897665253
3.853185;-1.812131653;8.24680069;5.014272766
3.869518;-1.833237762;8.360564117;4.948559418
3.885849;-1.717528381;8.395890656;4.845124512
3.902181;-1.710493011;8.451425171;4.800666962
3.918513;-1.700014801;8.358019409;4.677473145
3.934846;-1.72231842;8.176746368;4.763244781
3.951178;-1.812281342;8.186625824;4.853806458
3.96751;-1.905537415;8.307274933;4.887187042
3.983841;-2.015558624;8.408464508;4.834496613
4.000174;-2.047292633;8.466394043;4.753515015
4.016506;-2.009122009;8.434510345;4.618046722
4.032838;-1.928739166;8.402926025;4.475992126
4.04917;-1.848805389;8.325686646;4.378095703
4.065503;-1.75869278;8.190667419;4.361031189
4.08183875;-1.69432663;8.139024811;4.391268311
4.09816975;-1.707648926;8.104297028;4.599185944
4.11450175;-1.792223053;8.209977264;4.783003693
4.13083475;-1.892514496;8.348289642;4.846771088
4.14716675;-1.960024109;8.482111359;4.781506805
4.16349875;-1.972597961;8.543633423;4.691244507
4.17983075;-1.988165588;8.558901672;4.575834503
4.19616375;-2.002835083;8.524323578;4.45683197
4.21249475;-2.078278198;8.548872528;4.397255859
4.22882675;-2.243384857;8.536747742;4.383035431
4.24515875;-2.359992371;8.581504669;4.397106171
4.26149175;-2.416425018;8.729846191;4.257296906
4.27782375;-2.272873535;8.79436203;3.924239502
4.29415575;-2.141446838;8.797355804;3.811972961
4.31048675;-2.054328003;8.841813354;3.846850433
4.32681975;-2.09100174;8.873098297;3.712879028
4.34315175;-2.220183105;8.856482849;3.534749451
4.35948375;-2.372416534;8.746761017;3.585942993
4.37581575;-2.474055176;8.695417786;3.6389328
4.39214875;-2.494113464;8.834927673;3.662134552
4.40848075;-2.488125916;8.923693085;3.544329529
4.42481175;-2.348765717;8.900641022;3.51379303
4.44114375;-2.25012085;8.917106781;3.510649567
4.45747675;-2.182611237;9.01081192;3.365002441
4.47380875;-2.16120575;9.035660248;3.246598663
4.49014075;-2.150128784;9.162446594;3.271446991
4.50647275;-2.157762909;9.009913788;3.250640259
4.52280575;-2.277663574;8.955427094;3.107986908
4.53913675;-2.411634979;8.845705261;3.214714966
4.55546875;-2.623743896;8.897198181;3.201093292
4.57180075;-2.781815186;9.039552155;3.116968231
4.58813375;-2.987487488;9.000034332;2.975811768
4.60446575;-3.109932861;8.855884094;2.947370911
4.62079775;-3.146606598;8.986412659;3.032244415
4.63712875;-3.201841736;8.999884644;3.090922394
4.65346175;-3.395239563;8.991202698;3.178190918
4.66979375;-3.483256531;8.958720245;3.262016602
4.68612575;-3.381917267;8.859177246;3.259172516
4.70245775;-3.03868103;8.773106232;3.208877106
4.71879075;-2.792592773;8.616082764;3.117566986
4.73512275;-2.706970825;8.75110199;3.043920135
4.75145375;-2.799328766;8.823401642;3.260370026
4.76778575;-2.850522308;8.667575684;3.210523682
4.78411875;-2.804418182;8.702902222;3.206482086
4.80045075;-2.818189545;8.702453156;2.978506165
4.81678275;-2.74618927;8.736133118;2.986439667
4.83311475;-2.841840363;8.828940125;2.920876007
4.84944775;-2.829715576;8.828940125;2.955454102
4.86577875;-3.032543793;8.644523621;3.015928345
4.88211075;-3.147953796;8.879235535;3.084934845
4.89844275;-3.202141113;8.805888062;3.053799591
4.91477575;-3.132086792;8.775501251;2.938838654
4.93110775;-3.040028229;8.755592651;2.925815735
4.94743975;-2.947221222;8.848249969;2.94976593
4.96377075;-2.911595306;8.765472107;2.884651337
4.98010375;-2.908900909;8.703800354;2.892135773
4.99643575;-2.945874023;8.612490234;2.959645386
5.01276775;-3.275189209;8.668922882;3.042872314
5.02909975;-3.446433105;8.982520752;3.054398346
5.04543275;-3.50211731;9.177265778;2.984793091
5.06176475;-3.375031586;9.261839905;2.684816895
5.078091875;-3.199147339;9.377549286;2.332449646
5.094423875;-3.043770447;9.312285004;2.077829132
5.110756875;-3.211721191;9.458231506;1.865869904
5.127088875;-3.484304352;9.130413208;1.680854645
5.143420875;-3.82963623;8.850195923;1.623074799
5.159752875;-4.002975769;8.775950317;1.723815308
5.176085875;-4.143533478;8.656049652;1.939217377
5.192416875;-4.160897369;8.532855835;2.137405243
5.208748875;-4.137994995;8.523126068;2.26763443
5.225080875;-4.048930206;8.571176147;2.379302216
5.241413875;-3.869752808;8.58375;2.485730896
5.257745875;-3.65300354;8.668174438;2.596350861
5.274077875;-3.443289642;8.688083038;2.80471756
5.290408875;-3.296445007;8.747808838;2.902314606
5.306741875;-3.231629791;8.864416351;2.89123764
5.323073875;-3.07266037;8.963809662;2.819985809
5.339405875;-2.923420715;8.949439545;2.668650513
5.355737875;-2.774031372;8.962013397;2.575843506
5.372070875;-2.715353394;9.025331726;2.717149658
5.388402875;-2.692301331;8.970695343;2.575244751
5.404733875;-2.688110046;8.94524826;2.808310089
5.421065875;-2.76490036;8.950337677;2.83974472
5.437398875;-2.795586548;8.964857483;2.932102661
5.453730875;-2.768043823;8.947194214;2.984194336
5.470062875;-2.834804993;9.11619278;3.019221497
5.486394875;-2.813549194;8.800499268;3.010988617
5.502727875;-2.860551453;8.900191956;2.966381378
5.519058875;-2.933898926;8.955127716;2.822380829
5.535390875;-2.966531067;8.9500383;2.704725494
5.551722875;-3.006647644;8.920848999;2.635120239
5.568055875;-3.01068924;8.938362579;2.620750122
5.584387875;-3.004402313;8.964408417;2.659818878
5.600719875;-3.0058992;8.975934448;2.701432343
5.617050875;-3.016976166;8.883426819;2.686014404
5.633383875;-3.00709671;8.946745148;2.707120514
5.649715875;-3.008593597;9.046886902;2.684068451
5.666047875;-2.895129547;8.911568298;2.696342926
5.682379875;-2.858904877;8.879534912;2.751428375
5.698712875;-2.909200287;8.865913239;2.775827637
5.715044875;-2.92521698;8.872349854;2.787203979
5.731375875;-3.003055115;8.966653748;2.827619934
5.747707875;-3.037333832;8.954978027;2.793341217
5.764040875;-3.073708191;9.029972076;2.789000244
5.780372875;-3.059487762;8.996591492;2.784210205
5.796704875;-3.052003326;8.924740906;2.734064484
5.813035875;-3.046464844;8.895401917;2.754871216
5.829369875;-3.07610321;8.903335419;2.749332733
5.845700875;-3.042572937;8.897946625;2.728526001
5.862032875;-3.03404068;8.891060944;2.70173172
5.878364875;-3.019071808;8.888216858;2.687810669
5.894697875;-2.978655853;8.969946899;2.694995728
5.911029875;-2.987038422;9.088799744;2.6701474
5.927360875;-2.988535309;9.116791534;2.648143158
5.943692875;-2.975213013;9.064550171;2.615810394
5.960025875;-2.968177643;9.022188263;2.592608643
5.976357875;-2.973267059;8.906628571;2.580184479
5.992689875;-2.99542099;8.858279114;2.602188721
6.009021875;-3.03523819;8.815318451;2.643652496
6.025354875;-3.107687531;8.847202148;2.663710785
6.041685875;-3.09960434;8.927584991;2.663860474
6.058017875;-3.03404068;8.969946899;2.729124756
6.074349375;-3.025658112;8.990454254;2.727927246
6.090682375;-3.015030212;9.017398224;2.688708801
6.107014375;-2.96847702;8.971294098;2.646945648
6.123346375;-2.998863831;9.010512543;2.460283813
6.139677375;-2.954555969;8.888366547;2.594404907
6.156010375;-3.02116745;9.032367096;2.532882843
6.172342375;-3.0058992;9.080417175;2.471510468
6.188674375;-2.956501923;9.072483673;2.43498642
6.205006375;-2.949616241;9.065597992;2.424358521
6.221339375;-2.92521698;9.030421143;2.407443695
6.237671375;-2.905907135;8.991651764;2.421514435
6.254002375;-2.914140015;9.000034332;2.465073853
6.270334375;-2.934347992;9.008865967;2.520458679
6.286667375;-2.925965424;9.031019897;2.555785217
6.302999375;-2.896327057;9.068891144;2.591411133
6.319331375;-2.916684723;9.096882935;2.606679382
6.335663375;-2.936593323;9.093739471;2.616558838
6.351996375;-2.937641144;9.056317291;2.58467514
6.368327375;-2.939587097;8.929381256;2.542462921
6.384659375;-3.045566711;8.840466156;2.565814362
6.400991375;-3.166814575;8.844058685;2.59994339
6.417324375;-3.197351074;8.899892578;2.614163818
6.433656375;-3.113226013;8.937464447;2.610571289
6.449988375;-3.0058992;8.975186005;2.611469421
6.466319375;-2.938239899;8.978628845;2.621498566
6.482652375;-2.926863556;8.980724487;2.612666931
6.498984375;-2.881507874;8.936416626;2.653831329
6.515316375;-2.913990326;8.927435303;2.687062225
6.531648375;-2.976859589;8.949439545;2.701282654
6.547981375;-2.984194336;9.010662231;2.718197479
6.564312375;-2.996768188;9.036857758;2.636617126
6.580644375;-2.998115387;9.027277679;2.613565063
6.596976375;-2.994373169;9.087302856;2.644999695
6.613309375;-2.967728577;9.135352936;2.649789734
6.629641375;-2.928061066;9.132359161;2.62568985
6.645973375;-2.896027679;9.077872467;2.638413391
6.662304375;-2.913840637;8.97578476;2.630030823
6.678637375;-2.950514374;8.871152344;2.686014404
6.694969375;-3.010090485;8.82250351;2.717598724
6.711301375;-3.031795349;8.838370514;2.770139465
6.727633375;-3.039429474;8.907526703;2.771636353
6.743966375;-2.937042389;8.928333435;2.755170593
6.760298375;-2.913241882;8.939709778;2.765798492
6.776629375;-2.941533051;8.90902359;2.795436859
6.792961375;-2.909349976;8.832682343;2.774031372
6.809294375;-2.916235657;8.816066895;2.814597015
6.825626375;-2.913990326;8.794212341;2.791994019
6.841958375;-2.951262817;8.805438995;2.794089661
6.858290375;-2.957250366;8.863218842;2.795885925
6.874623375;-2.918630676;8.915160828;2.823129272
6.890954375;-2.932551727;9.015302582;2.753673706
6.907286375;-2.916535034;9.042845306;2.782114563
6.923618375;-2.936144257;9.057814178;2.741099854
6.939951375;-2.912942505;9.020391998;2.721191254
6.956283375;-2.938988342;8.953331451;2.730022888
6.972615375;-2.979553986;8.919950867;2.760709076
6.988946375;-2.998863831;8.900341644;2.808310089
7.005279375;-3.014431458;8.883576508;2.811154175
7.021611375;-3.040626984;8.896898804;2.824177094
7.037943375;-3.087030487;8.908125458;2.817740479
7.054275375;-3.080294495;8.912765808;2.820285187
7.070608375;-3.064128113;8.89270752;2.830164642
7.0869405;-3.073259125;8.901239777;2.85261795
7.1032715;-3.072360992;8.882229309;2.842439117
7.1196035;-3.0258078;8.875193939;2.837948456
7.1359365;-2.990630951;8.880732422;2.818339233
7.1522685;-2.978955231;8.881331177;2.83510437
7.1686005;-2.981799316;8.909921722;2.784509583
7.1849325;-2.963237915;8.920549622;2.806813202
7.2012655;-2.961291962;8.89615036;2.794239349
7.2175965;-2.975362701;8.919202423;2.831362152
7.2339285;-3.0258078;8.926387482;2.806214447
7.2502605;-2.974763947;8.873697052;2.807861023
7.2665935;-3.011587372;8.894803162;2.849324799
7.2829255;-3.058140564;8.889264679;2.844085693
7.2992565;-3.081492004;8.848848724;2.866988068
7.3155885;-3.124452667;8.825048218;2.927312622
7.3319215;-3.149001617;8.819360046;2.959944763
7.3482535;-3.178639984;8.844358063;2.974763947
7.3645855;-3.177442474;8.862919464;2.946023712
7.3809175;-3.174149323;8.87504425;2.929258575
7.3972505;-3.155138855;8.883127441;2.91114624
7.4135815;-3.150797882;8.875493317;2.879861298
7.4299135;-3.111729126;8.839268646;2.858306122
7.4462455;-3.082988892;8.817414093;2.869233398
7.4625785;-3.078797607;8.832233276;2.911295929
7.4789105;-3.070415039;8.838071136;2.937042389
7.4952425;-3.081941071;8.838071136;2.972368927
7.5115735;-3.082689514;8.820707245;3.002755737
7.5279065;-3.108435974;8.843609619;2.996917877
7.5442385;-3.104993134;8.842711487;2.98374527
7.5605705;-3.091970215;8.813522186;2.99422348
7.5769025;-3.095712433;8.820856934;2.99542099
7.5932355;-3.116369476;8.82834137;3.005001068
7.6095675;-3.101250916;8.833580475;2.999163208
7.6258985;-3.087629242;8.823401642;3.030148773
7.6422305;-3.104693756;8.802295532;3.031795349
7.6585635;-3.113824768;8.832382965;3.01996994
7.6748955;-3.104394379;8.837322693;3.016227722
7.6912275;-3.110381927;8.819809113;3.018922119
7.7075595;-3.100652161;8.832233276;2.981499939
7.7238925;-3.125650177;8.762478333;3.09840683
7.7402235;-3.068319397;8.7814888;2.947969666
7.7565555;-3.062930603;8.764573975;2.957400055
7.7728875;-3.074606323;8.772208099;2.974464569
7.7892205;-3.113824768;8.738528137;3.030298462
7.8055525;-3.1545401;8.712033234;3.049907684
7.8218835;-3.170556793;8.746611328;3.042572937
7.8382155;-3.179238739;8.790769501;3.044668579
7.8545485;-3.154989166;8.824150085;3.021616516
7.8708805;-3.145259399;8.853189697;3.010090485
7.8872125;-3.149001617;8.871002655;2.976410522
7.9035445;-3.12415329;8.850046234;2.951861572
7.9198775;-3.090922394;8.802445221;3.000360718
7.9362085;-3.107837219;8.782536621;3.021766205
7.9525405;-3.12056076;8.764424286;3.03987854
7.9688725;-3.116369476;8.737330627;3.073109436
7.9852055;-3.12175827;8.714278564;3.118914185
8.0015375;-3.112627258;8.753347321;3.121458893
8.0178695;-3.131038971;8.730894012;3.126099243
8.0342005;-3.12759613;8.743018799;3.106190643
8.0505335;-3.132984924;8.7615802;3.084186401
8.0668655;-3.145558777;8.778345337;3.056493988
8.0831975;-3.14989975;8.762628021;3.046015778
8.0995295;-3.141367493;8.775201874;3.05514679
8.1158625;-3.153192902;8.80259491;3.042423248
8.1321945;-3.160228271;8.777596893;3.081342316
8.1485255;-3.164120178;8.765921173;3.086282043
8.1648575;-3.188669128;8.787476349;3.100801849
8.1811905;-3.207679596;8.809929657;3.084036713
8.1975225;-3.212769012;8.805888062;3.059487762
8.2138545;-3.196153564;8.813671875;3.059637451
8.2301865;-3.198847961;8.80019989;3.039429474
8.2465195;-3.209775238;8.781937866;3.014880524
8.2628505;-3.187920685;8.758586426;3.027154999
8.2791825;-3.168760529;8.732839966;3.063379669
8.2955145;-3.193908234;8.74286911;3.079246674
8.3118475;-3.188818817;8.757089539;3.069516907
8.3281795;-3.182382202;8.766370239;3.05035675
8.3445115;-3.170407104;8.804241486;3.023712158
8.3608425;-3.19780014;8.817414093;3.008593597
8.3771755;-3.18612442;8.825347595;2.986739044
8.3935075;-3.151845703;8.778495026;2.985990601
8.4098395;-3.147055664;8.747359772;3.019670563
8.4261715;-3.155288544;8.753347321;3.035986633
8.4425045;-3.15693512;8.738977203;3.067421265
8.4588365;-3.164718933;8.759634247;3.081641693
8.4751675;-3.181633759;8.781189423;3.06802002
8.4914995;-3.177592163;8.788075104;3.027154999
8.5078325;-3.167862396;8.813821564;2.996169434
8.5241645;-3.178490295;8.823701019;2.977308655
8.5404965;-3.172502747;8.831484833;2.93569519
8.5568285;-3.144960022;8.83298172;2.914140015
8.5731615;-3.119512939;8.84001709;2.934347992
8.5894925;-3.110381927;8.863817596;2.90994873
8.6058245;-3.089275818;8.869805145;2.908751221
8.6221565;-3.062182159;8.826994171;2.930456085
8.6384895;-3.078947296;8.83881958;2.913690948
8.6548215;-3.121608582;8.841064911;2.919977875
8.6711535;-3.14286438;8.838969269;2.897524567
8.6874845;-3.123704224;8.825646973;2.939587097
8.7038175;-3.155587921;8.846154327;2.913092194
8.7201495;-3.147055664;8.856782227;2.884501648
8.7364815;-3.144810333;8.851543121;2.860102386
8.7528135;-3.133733368;8.859177246;2.838247833
8.7691465;-3.167263641;8.865913239;2.847229156
8.7854785;-3.143912201;8.850794678;2.845133514
8.8018095;-3.119662628;8.848399658;2.828069
8.8181415;-3.116818542;8.884923706;2.802172852
8.8344745;-3.117267609;8.900341644;2.771786041
8.8508065;-3.091820526;8.908125458;2.770588531
8.8671385;-3.085383911;8.922345886;2.774630127
8.8834705;-3.073259125;8.931776276;2.756068726
8.8998035;-3.026855621;8.916508026;2.762205963
8.9161345;-3.014281769;8.87160141;2.785707092
8.9324665;-3.023712158;8.874146118;2.77657608
8.9487985;-3.025209045;8.880133667;2.806663513
8.9651315;-3.033292236;8.861123199;2.824925537
8.9814635;-3.032543793;8.880283356;2.838397522
8.9977955;-3.044967957;8.897048492;2.827769623
9.0141275;-3.047812042;8.884324951;2.800825653
9.0304605;-3.055895233;8.862021332;2.82223114
9.0467915;-3.074606323;8.855584717;2.816542969
9.0631235;-3.085084534;8.851992188;2.827769623
9.07945625;-3.084934845;8.834029541;2.834954681
9.09578925;-3.08089325;8.844358063;2.834206238
9.11212125;-3.088527374;8.862171021;2.823728027
9.12845325;-3.069666595;8.866212616;2.822680206
9.14478425;-3.068469086;8.904083862;2.831811218
9.16111725;-3.07026535;8.923693085;2.78016861
9.17744925;-3.052901459;8.910670166;2.798430634
9.19378125;-3.038830719;8.950637054;2.760110321
9.21011325;-3.032992859;8.934021606;2.772684174
9.22644625;-3.062331848;8.90558075;2.757415924
9.24277825;-3.059637451;8.881630554;2.788700867
9.25910925;-3.047961731;8.848249969;2.843636627
9.27544125;-3.079246674;8.843010864;2.872975616
9.29177425;-3.07730072;8.862470398;2.853516083
9.30810625;-3.074606323;8.869356079;2.840792542
9.32443825;-3.074007568;8.864865417;2.838846588
9.34077025;-3.094514923;8.868158569;2.823728027
9.35710325;-3.120111694;8.846453705;2.838098145
9.37343425;-3.115621033;8.83762207;2.864892426
9.38976625;-3.116968231;8.839118958;2.905907135
9.40609825;-3.099754028;8.855285339;2.926713867
9.42243125;-3.111429749;8.838071136;2.987038422
9.43876325;-3.102298737;8.807684326;2.970273285
9.45509525;-3.107088776;8.794511719;2.944975891
9.47142625;-3.135679321;8.762029266;2.905907135
9.48776025;-3.098855896;8.788673859;2.847827911
9.50409125;-3.120111694;8.862320709;2.836451569
9.52042325;-3.14406189;8.961863708;2.78600647
9.53675525;-3.088826752;9.011710052;2.813399506
9.55308825;-3.113675079;8.977880402;2.879861298
9.56942025;-3.0855336;8.999585266;2.918630676
9.58575125;-3.086880798;8.908873901;2.994073792
9.60208325;-3.092419281;8.80963028;3.113675079
9.61841625;-3.16397049;8.667276306;3.187022552
9.63474825;-3.240760803;8.538544006;3.192561035
9.65108025;-3.32533493;8.439749451;3.268602905
9.66741225;-3.377127228;8.35562439;3.345991974
9.68374525;-3.429667969;8.363258514;3.374283142
9.70007725;-3.461401978;8.455915833;3.404370575
9.71640825;-3.430117035;8.47612381;3.421435089
9.73274025;-3.404819641;8.523575134;3.434907074
9.74907325;-3.407514038;8.608897705;3.443439331
9.76540525;-3.371738434;8.662935333;3.445385284
9.78173725;-3.372337189;8.667875061;3.422183533
9.79806925;-3.370690613;8.65979187;3.359613647
9.81440225;-3.346740417;8.597072296;3.264112244
9.83073325;-3.344195709;8.525970154;3.209475861
9.84706525;-3.366050262;8.522078247;3.212020569
9.86339725;-3.392844543;8.592731323;3.212170258
9.87973025;-3.410058746;8.650660858;3.268153839
9.89606225;-3.43415863;8.70664444;3.382216644
9.91239425;-3.430266724;8.730894012;3.445684662
9.92872525;-3.433709564;8.686586151;3.505410461
9.94505825;-3.412603455;8.600664825;3.511996765
9.96139025;-3.457510071;8.490793304;3.53953949
9.97772225;-3.47053299;8.457712097;3.494932251
9.99405425;-3.448977814;8.42807373;3.447480927
10.01038725;-3.497177582;8.43166626;3.472329254
10.02671925;-3.53594696;8.553512878;3.506458282
10.04305025;-3.526366882;8.666976929;3.475023651
10.05938225;-3.434907074;8.675359497;3.532055054
10.07571487;-3.457959137;8.697064362;3.49508194
10.09204688;-3.42832077;8.677904205;3.462599487
10.10837888;-3.329975281;8.626860352;3.436703339
10.12471088;-3.331921234;8.563542023;3.445984039
10.14104387;-3.409759369;8.534502411;3.503165131
10.15737487;-3.500620422;8.560697937;3.50795517
10.17370687;-3.436104584;8.476273499;3.552263031
10.19003888;-3.46230011;8.533304901;3.565884705
10.20637188;-3.474424896;8.49019455;3.553610229
10.22270387;-3.43999649;8.468789062;3.573818207
10.23903587;-3.431763611;8.389454041;3.593577118
10.25536687;-3.508104858;8.404123535;3.672014008
10.27170088;-3.507057037;8.379724274;3.738026733
10.28803188;-3.580554199;8.310717773;3.7384758
10.30436388;-3.505709839;8.331374817;3.765569458
10.32069587;-3.5699263;8.346194;3.76886261
10.33702888;-3.494333496;8.374036102;3.710933075
10.35336088;-3.518882446;8.325836334;3.758085022
10.36969288;-3.462898865;8.36730011;3.721261597
10.38602388;-3.543730774;8.345744934;3.780089264
10.40235687;-3.46574295;8.393645325;3.732787628
10.41868888;-3.544030151;8.38017334;3.833977203
10.43502088;-3.550167389;8.41056015;3.750750275
10.45135288;-3.551364899;8.379724274;3.81332016
10.46768587;-3.570824432;8.335416412;3.794010315
10.48401788;-3.553909607;8.314160614;3.829037476
10.50034887;-3.625011749;8.33332077;3.851640472
10.51668088;-3.592379608;8.294551392;3.79221405
10.53301388;-3.590733032;8.295299835;3.80867981
10.54934587;-3.651057587;8.341853027;3.79924942
10.56567787;-3.677402802;8.433163147;3.731590118
10.58200988;-3.644471283;8.421786804;3.724554749
10.59834288;-3.698359222;8.596772919;3.726500702
10.61467388;-3.746708679;8.475674744;3.735781403
10.63100588;-3.725003815;8.496631165;3.678600311
10.64733787;-3.72904541;8.440048828;3.673361206
10.66367088;-3.747307434;8.392447815;3.708987122
10.68000288;-3.722309418;8.399782562;3.651955719
10.69633488;-3.69162323;8.360115051;3.70569397
10.71266588;-3.677402802;8.318501587;3.751199341
10.72899988;-3.705993347;8.30173645;3.816613312
10.74533088;-3.731739807;8.338260498;3.872147827
10.76166288;-3.7384758;8.347092133;3.926335144
10.77799488;-3.706891479;8.297844543;3.923790436
10.79432787;-3.707041168;8.280181274;3.889511719
10.81065988;-3.613036652;8.282127228;3.933669891
10.82699188;-3.681743774;8.26670929;3.880081329
10.84332288;-3.667373657;8.306825867;3.85777771
10.85965588;-3.666774902;8.227341156;3.824546814
10.87598787;-3.761527863;8.327632599;3.7676651
10.89231987;-3.70210144;8.22689209;3.821403351
10.90865188;-3.724255371;8.273295593;3.795058136
10.92498488;-3.667972412;8.271199951;3.811374207
10.94131687;-3.648812256;8.277486877;3.835773468
10.95764788;-3.611240387;8.275241547;3.847598877
10.97397987;-3.6190242;8.274493103;3.863166504
10.99031288;-3.595074005;8.271199951;3.852239227
11.00664488;-3.632945251;8.28766571;3.863465881
11.02297688;-3.626209259;8.332572327;3.829785919
11.03930887;-3.606300659;8.328381042;3.855083313
11.05564188;-3.61318634;8.340056763;3.841910706
11.07197288;-3.594026184;8.309370575;3.830085297
11.08830492;-3.631298676;8.323141937;3.834725647
11.10463692;-3.592529297;8.281378784;3.819008331
11.12096992;-3.63309494;8.270900574;3.865860901
11.13730192;-3.688928833;8.32164505;3.831133118
11.15363392;-3.738176422;8.351882172;3.817810822
11.16996592;-3.701652374;8.334368591;3.781586151
11.18629892;-3.718118134;8.380921783;3.802692261
11.20262992;-3.721111908;8.471633148;3.77350296
11.21896192;-3.669020233;8.50651062;3.769161987
11.23529392;-3.586541748;8.442892914;3.718716888
11.25162692;-3.568878479;8.406668243;3.717669067
11.26795892;-3.574267273;8.406069489;3.746409302
11.28429092;-3.605701904;8.392148438;3.845952301
11.30062192;-3.620970154;8.414901123;3.893553314
11.31695492;-3.636986847;8.406817932;3.895349579
11.33328692;-3.562441864;8.403375092;3.93501709
11.34961892;-3.595972137;8.354277191;3.933669891
11.36595092;-3.612138519;8.33571579;3.878734131
11.38228392;-3.603157196;8.20234314;3.871549072
11.39861592;-3.562591553;8.177195435;3.881428528
11.41494792;-3.579955444;8.172405396;3.898642731
11.43127892;-3.578608246;8.174051971;3.897295532
11.44761192;-3.542383575;8.193062439;3.892954559
11.46394392;-3.611988831;8.275690613;3.846700745
11.48027592;-3.552263031;8.233628082;3.849245453
11.49660792;-3.538042603;8.314010925;3.804039459
11.51294092;-3.52666626;8.361162872;3.797902222
11.52927292;-3.509302368;8.376730499;3.811972961
11.54560392;-3.509601746;8.401279449;3.802991638
11.56193592;-3.491040344;8.37313797;3.853436737
11.57826892;-3.484903107;8.338709564;3.871399384
11.59460092;-3.546724548;8.28302536;3.913461914
11.61093292;-3.532354431;8.286318512;3.874692535
11.62726492;-3.508703613;8.187374268;3.878734131
11.64359792;-3.550616455;8.13438446;3.926484833
11.65992992;-3.635789337;8.219707031;3.876039734
11.67626092;-3.661835175;8.306676178;3.899690552
11.69259292;-3.664230194;8.404871979;3.920347595
11.70892592;-3.682492218;8.510851593;3.885021057
11.72525792;-3.597169647;8.538394318;3.884571991
11.74158992;-3.543880463;8.439300385;3.895948334
11.75792192;-3.463796997;8.321495361;3.899091797
11.77425492;-3.447929993;8.220754852;3.904181213
11.79058692;-3.470982056;8.153245239;3.921245728
11.80691792;-3.526516571;8.094417572;3.928281097
11.82324992;-3.558549957;8.127199402;3.957320709
11.83958292;-3.610641632;8.241561584;3.952830048
11.85591492;-3.611090698;8.337212677;3.948040009
11.87224692;-3.562142487;8.363258514;3.994593201
11.88857892;-3.508703613;8.326135712;3.974235535
11.90491192;-3.489693146;8.241711273;3.949985962
11.92124292;-3.411855011;8.19994812;3.916755066
11.93757492;-3.500021667;8.164621582;3.916306
11.95390692;-3.526366882;8.203690338;3.916755066
11.97023992;-3.562741241;8.311765594;3.933969269
11.98657192;-3.604354706;8.409512329;3.974534912
12.00290392;-3.611390076;8.471034393;4.044888611
12.01923492;-3.572171631;8.416996765;4.01569931
12.03556892;-3.483855286;8.295449524;3.980073395
12.05189992;-3.530408478;8.195008392;3.976331177
12.06823192;-3.542533264;8.18587738;3.969146118
12.08456412;-3.568279724;8.29125824;4.025578766
12.10089713;-3.573219452;8.410111084;4.062402191
12.11722913;-3.550915833;8.504414978;4.049079895
12.13356113;-3.536096649;8.484506378;4.006268921
12.14989213;-3.525768127;8.358618164;3.974983978
12.16622512;-3.547173615;8.257877655;3.987258453
12.18255713;-3.59103241;8.277037811;3.988006897
12.19888913;-3.60270813;8.351732483;4.002077637
12.21522113;-3.589236145;8.330326996;4.018393707
12.23155413;-3.580254822;8.286468201;3.976780243
12.24788613;-3.645070038;8.203840027;3.989653473
12.26421813;-3.679498444;8.130342865;3.961212616
12.28054913;-3.651506653;8.128696289;3.979324951
12.29688213;-3.65764389;8.217910767;4.0450383
12.31321412;-3.622916107;8.280780029;4.084107056
12.32954612;-3.616180115;8.231083374;4.060007172
12.34587813;-3.547173615;8.147407379;4.018693085
12.36221112;-3.61558136;8.097261658;3.960164795
12.37854312;-3.71617218;8.162376251;3.960314484
12.39487413;-3.708687744;8.380323029;4.004173279
12.41120612;-3.636388092;8.54048996;4.015998688
12.42753913;-3.610042877;8.596174164;4.018244019
12.44387113;-3.567830658;8.463100891;3.975433044
12.46020313;-3.621119843;8.261021118;3.951183472
12.47653512;-3.650309143;8.159681854;3.981270905
12.49286813;-3.673959961;8.22689209;4.05791153
12.50920013;-3.644920349;8.337362366;4.075874176
12.52553113;-3.580853577;8.321794739;4.076323242
12.54186313;-3.588038635;8.174051971;4.065096588
12.55819612;-3.74431366;8.092022552;4.045786743
12.57452813;-3.760480042;8.178692322;4.045337677
12.59086013;-3.680995331;8.408165131;4.165088654
12.60719213;-3.606600037;8.573122101;4.136647797
12.62352513;-3.469784546;8.484356689;4.10581192
12.63985713;-3.510499878;8.23976532;4.017345886
12.65618812;-3.653452606;8.107739868;4.000281372
12.67252013;-3.680246887;8.26895462;4.033811646
12.68885312;-3.571423187;8.46444809;4.10700943
12.70518512;-3.479065247;8.450976105;4.163442078
12.72151712;-3.484454041;8.21521637;4.142635345
12.73784913;-3.633544006;7.929460602;4.169878693
12.75418212;-3.818559265;7.966583405;4.181404724
12.77051313;-3.691024475;8.206085358;4.179309082
12.78684513;-3.482059021;8.256979523;4.237837372
12.80317712;-3.444187775;8.160579987;4.312532043
12.81951013;-3.516038361;7.943231964;4.249812469
12.83584213;-3.654350739;7.870483246;4.291425934
12.85217413;-3.653302917;8.01388504;4.27436142
12.86850612;-3.492088165;8.322543182;4.326752472
12.88483913;-3.374881897;8.250542908;4.389472046
12.90117013;-3.524869995;8.124654694;4.474944305
12.91750213;-3.638633423;8.089627533;4.42180481
12.93383413;-3.573967896;8.13213913;4.337829437
12.95016713;-3.395389252;8.099956055;4.261338501
12.96649913;-3.364403687;7.870632935;4.281696167
12.98283113;-3.587140503;7.818391571;4.443809052
12.99916213;-3.776347046;7.945028229;4.483027496
13.01549613;-3.632645874;8.166268158;4.427942047
13.03182712;-3.47637085;8.183781738;4.362228699
13.04815912;-3.533252563;7.931705933;4.415817261
13.06449113;-3.76646759;7.888445892;4.493206329
13.08082325;-3.835025024;8.012837219;4.43348053
13.09715525;-3.670666809;8.190966797;4.342469788
13.11348725;-3.558100891;8.077353058;4.272565155
13.12981925;-3.79460907;7.88754776;4.416865082
13.14615225;-4.006119232;8.01747757;4.38902298
13.16248325;-3.944597168;8.101602631;4.311933289
13.17881525;-3.622766418;8.124355316;4.230352936
13.19514725;-3.579057312;7.897576904;4.24157959
13.21148025;-3.888763275;8.004155273;4.519401855
13.22781225;-4.071383514;8.289461975;4.508773956
13.24414425;-3.841761017;8.425529022;4.363875275
13.26047525;-3.442690887;8.209827576;4.257596283
13.27680925;-3.573518829;7.960745544;4.275558929
13.29314025;-3.938160553;7.829468536;4.257446594
13.30947225;-3.877536621;7.918683014;4.162394257
13.32580425;-3.437302094;8.069269867;4.129612427
13.34213725;-3.659739532;8.194709015;4.189038849
13.35846925;-3.980073395;8.278534698;4.358037415
13.37480125;-4.090843048;8.472082214;4.392166443
13.39113225;-3.647465057;8.498726807;4.317771149
13.40746625;-3.271297302;8.506211243;4.353546753
13.42379725;-3.551813965;8.646319885;4.441713409
13.44012925;-3.713178406;8.663683777;4.409979401
13.45646125;-3.421884155;8.608149261;4.407135315
13.47279425;-3.193758545;8.547076263;4.295317841
13.48912625;-3.297642517;8.41999054;4.154760132
13.50545825;-3.346291351;8.254883881;4.157005463
13.52178925;-3.411555634;8.211025085;4.216581573
13.53812325;-3.267854462;8.128845978;4.173620911
13.55445425;-3.501668243;8.198451233;4.127367096
13.57078625;-3.60270813;8.185428314;4.061204681
13.58711825;-3.497926025;8.220305786;4.139491882
13.60345125;-3.484004974;8.334069214;4.154909821
13.61978325;-3.651207275;8.403075714;4.26612854
13.63611525;-3.530558167;8.414751434;4.140689392
13.65244625;-3.229833527;8.292755127;4.069736938
13.66878025;-3.256777496;8.179141388;4.065845032
13.68511125;-3.386707306;8.162675629;4.048930206
13.70144325;-3.179987183;8.094716949;4.012106781
13.71777525;-3.059637451;8.067922668;4.018543396
13.73410825;-3.253933411;8.067623291;4.109554138
13.75044025;-3.280128937;8.057594147;4.101770325
13.76677225;-3.181035004;8.000113678;4.192182312
13.78310425;-3.440445557;8.028554535;4.178111572
13.79943725;-3.560046844;8.092770996;4.239783325
13.81576825;-3.546125793;8.297694855;4.2520578
13.83210025;-3.441942444;8.505911865;4.264182587
13.84843225;-3.448977814;8.580905914;4.262086945
13.86476525;-3.343297577;8.461753693;4.06599472
13.88109725;-3.164718933;8.181087341;4.059109039
13.89742925;-3.208577728;8.106841736;3.953877869
13.91376125;-3.305576019;8.124954071;3.93845993
13.93009425;-3.373534698;8.19530777;3.99354538
13.94642525;-3.430266724;8.28766571;4.122726746
13.96275725;-3.646716614;8.44917984;4.145928497
13.97908925;-3.652704163;8.483608246;4.073778534
13.99542225;-3.690874786;8.354277191;4.097429352
14.01175425;-3.727099457;8.256530457;4.087699585
14.02808625;-3.685485992;8.330776062;4.035907288
14.04441825;-3.603606262;8.322543182;4.054019623
14.06075125;-3.659589844;8.373886414;4.1830513
14.07708225;-3.607797546;8.387957153;4.112098846
14.09341492;-3.438798981;8.266559601;4.012406158
14.10974692;-3.452121277;8.141719208;4.048181763
14.12607992;-3.559747467;8.154891815;4.1140448
14.14241192;-3.607947235;8.267906799;4.096231842
14.15874392;-3.62141922;8.321794739;4.100123749
14.17507592;-3.549418945;8.38720871;4.070485382
14.19140892;-3.569327545;8.349936218;4.074676666
14.20773992;-3.68698288;8.27479248;4.134252777
14.22407192;-3.741170197;8.225844269;4.05087616
14.24040392;-3.66467926;8.054600372;3.94908783
14.25673692;-3.717220001;7.987390137;3.986060944
14.27306892;-3.707490234;8.020471344;3.963008881
14.28940092;-3.636537781;8.079598389;3.967200165
14.30573292;-3.663182373;8.013735352;3.988306274
14.32206592;-3.675307159;7.921976166;3.911366272
14.33839692;-3.710933075;7.819289703;3.835474091
14.35472892;-3.881877594;7.845036163;3.985911255
14.37106092;-3.846401367;8.228987732;4.077969818
14.38739392;-3.851640472;8.515342255;4.027824097
14.40372592;-3.789669342;8.574169922;4.077820129
14.42005792;-3.672762451;8.473279724;3.909570007
14.43638992;-3.408262482;8.224796448;3.792064362
14.45272292;-3.508254547;8.24560318;3.888763275
14.46905492;-3.559148712;8.348738708;3.886068878
14.48538592;-3.590583344;8.332272949;3.762425995
14.50171792;-3.564836884;8.071664886;3.828289032
14.51805092;-3.672313385;7.95894928;3.69746109
14.53438292;-3.758833466;7.778424683;3.714226227
14.55071492;-3.882176971;7.789651337;3.769910431
14.56704692;-3.873195648;7.882608032;3.670816498
14.58337992;-3.940555573;7.901917877;3.810476074
14.59971192;-4.170327759;8.171507263;3.910019073
14.61604292;-4.142186279;8.460705872;3.842808838
14.63237492;-4.130809937;8.568930817;3.969595184
14.64870792;-4.179009705;8.731941833;3.899540863
14.66503992;-4.007466431;8.561596069;3.748804321
14.68137192;-3.863316193;8.245154114;3.720213776
14.69770392;-3.88232666;8.159382477;3.5500177
14.71403692;-3.806434479;8.090675354;3.576811981
14.73036892;-4.137994995;8.227640533;3.707041168
14.74669992;-4.101470947;8.386310577;3.544329529
14.76303192;-3.892505493;8.261619873;3.670367432
14.77936492;-4.080813904;8.207582245;3.748804321
14.79569692;-4.067491608;8.140222321;3.752396851
14.81202892;-4.001628571;8.094716949;3.83442627
14.82836092;-4.113895111;8.129295044;3.830234985
14.84469392;-4.066144409;8.208031311;3.814218292
14.86102592;-4.117787018;8.297245789;3.848796387
14.87735692;-4.244723053;8.205187225;3.717818756
14.89368892;-4.017345886;8.198151855;3.64716568
14.91002192;-4.113745422;8.267757111;3.670068054
14.92635392;-4.085304565;8.302634583;3.572770386
14.94268592;-3.8366716;8.284522247;3.598816223
14.95901792;-4.015549622;8.211025085;3.610641632
14.97535092;-4.146527252;8.166268158;3.557502136
14.99168292;-4.154311066;8.289162598;3.589385834
15.00801492;-4.296066284;8.327033844;3.637585602
15.02434592;-4.312532043;8.283324738;3.654500427
15.04067892;-4.296665039;8.14381485;3.503464508
15.05701092;-4.245621185;7.78695694;3.455414429
15.07334292;-4.287084961;7.767647095;3.462449799
15.0896745;-4.562811584;7.839797058;3.368594971
15.1060075;-4.563260651;8.032745819;3.303031311
15.1223395;-4.565505981;8.196954346;3.262016602
15.1386715;-4.598587189;8.247848511;3.287763062
15.1550025;-4.611011353;8.409961395;3.386108551
15.1713355;-4.762346649;8.484955444;3.371738434
15.1876675;-4.740791473;8.505013733;3.388204193
15.2039995;-4.487069092;8.459059296;3.316652985
15.2203315;-4.365671539;8.215964813;3.248843994
15.2366645;-4.438270569;8.174650726;3.346291351
15.2529965;-4.759352875;8.23272995;3.338806915
15.2693285;-4.885241089;8.312963104;3.21067337
15.2856605;-4.681814117;8.410709839;3.103346558
15.3019935;-4.697980499;8.391549683;3.14406189
15.3183245;-4.731959839;8.497229919;3.137625275
15.3346565;-4.745431824;8.410111084;2.945574646
15.3509885;-4.494403839;8.248297577;2.837200012
15.3673215;-4.378544769;8.18587738;2.774929504
15.3836535;-4.574487305;8.092172241;2.874622192
15.3999855;-4.711153107;8.217910767;2.975662079
15.4163175;-4.710404663;8.282127228;2.944377136
15.4326505;-4.646786957;8.336464233;3.062780914
15.4489815;-4.547094269;8.205037537;2.997366943
15.4653135;-4.317172394;7.78111908;2.93809021
15.4816455;-4.138893127;7.60089386;3.021317139
15.4979785;-4.371210022;7.721842346;3.131338348
15.5143105;-4.537514191;8.102500763;3.05858963
15.5306425;-4.560416565;8.219108276;2.985691223
15.5469745;-4.4206073;8.10280014;2.972817993
15.5633075;-4.480333099;8.101003876;2.86549118
15.5796395;-4.652175751;8.03259613;3.01996994
15.5959705;-4.650229797;8.134534149;2.942131805
15.6123025;-4.66400116;7.877817993;2.609224091
15.6286355;-4.548441467;7.890840912;2.628683624
15.6449675;-4.7271698;8.27134964;2.842888184
15.6612995;-5.104984131;8.382418671;3.031495972
15.6776315;-4.980892181;8.523275757;2.936443634
15.6939645;-4.834197235;8.240364075;2.833008728
15.7102965;-4.647086334;8.275540924;2.894530792
15.7266275;-4.842130737;8.177494812;2.931952972
15.7429595;-4.789889374;8.13677948;2.908302155
15.7592925;-4.759801941;8.148155823;2.800376587
15.7756245;-4.875810699;8.293054504;2.919828186
15.7919565;-4.98223938;8.493338013;2.836601257
15.8082885;-5.021757202;8.323591003;2.843486938
15.8246215;-4.811594238;8.153694305;2.636467438
15.8409535;-4.663701782;7.946674805;2.513722687
15.8572855;-4.692741394;7.918982391;2.653382263
15.8736165;-4.990771637;8.122259674;2.704426117
15.8899505;-4.996908875;8.259075165;2.676584015
15.9062815;-4.926555176;8.340805206;2.66430954
15.9226135;-4.825066223;8.244854736;2.677332458
15.9389455;-4.755311279;8.159083099;2.577340393
15.9552785;-4.786745911;8.082442474;2.597398682
15.9716105;-4.779411163;8.304430847;2.52270401
15.9879425;-4.86054245;8.359366608;2.544708252
16.0042745;-4.817881165;8.513396301;2.700683899
16.0206075;-4.862189026;8.605454865;2.797233124
16.0369385;-4.874014435;8.570727081;2.881058807
16.0532705;-4.769681396;8.23272995;2.679727478
16.0696025;-4.511019287;7.764353943;2.563119965
16.08593942;-4.471501465;7.601642303;2.570005646
16.10227142;-4.678670654;7.638765106;2.668500824
16.11860342;-4.830305328;7.884404297;2.605032806
16.13493542;-4.809498596;7.87227951;2.630928955
16.15126842;-4.734055481;8.059091034;2.68182312
16.16760042;-5.026247864;8.302335205;2.805466003
16.18393142;-5.154680786;8.65155899;2.772684174
16.20026342;-5.124144287;8.646469574;2.59874588
16.21659642;-4.890180817;8.555907898;2.535128174
16.23292842;-4.866829376;8.458460541;2.483934631
16.24926042;-4.919519806;8.459957428;2.579436035
16.26559242;-4.864134979;8.476572876;2.421813812
16.28192542;-4.730762329;8.305778046;2.419119415
16.29825742;-4.90964035;8.046816559;2.252216492
16.31458942;-5.007536774;7.957602081;2.29802124
16.33092042;-5.181924133;8.023764496;2.310445404
16.34725342;-5.406756592;8.353528748;2.450554047
16.36358542;-5.495821381;8.67850296;2.415227509
16.37991742;-5.353766785;8.670868835;2.410138092
16.39624942;-4.962929535;8.445886688;2.338886261
16.41258242;-4.982838135;8.209228821;2.433489532
16.42891442;-5.027595062;8.345595245;2.372117157
16.44524642;-4.985831909;8.275540924;2.291884003
16.46157842;-4.753515015;8.366252289;2.366578674
16.47791142;-4.834197235;8.367599487;2.377356262
16.49424242;-4.702321472;8.240064697;2.391277313
16.51057442;-4.774621124;7.985144806;2.383044434
16.52690642;-4.741090851;7.924820251;2.379152527
16.54323942;-4.924160156;8.142467651;2.442620544
16.55957142;-4.98343689;8.464597778;2.560425568
16.57590342;-4.867727509;8.480015717;2.495161285
16.59223542;-4.670886841;8.167465668;2.502346344
16.60856842;-4.677922211;8.020321655;2.395767975
16.62490042;-4.770280151;7.979905701;2.524350586
16.64123142;-4.599485321;8.239915009;2.493963776
16.65756342;-4.677622833;8.453520813;2.624642029
16.67389642;-4.652624817;8.59782074;2.531535645
16.69022842;-4.606820068;8.104746094;2.335593109
16.70656042;-4.347708893;7.591762848;2.056723022
16.72289242;-4.326602783;7.25690918;2.214494934
16.73922542;-4.602179718;7.581733704;2.13770462
16.75555742;-5.083428955;8.009095001;2.326013031
16.77188942;-5.061574402;8.861871643;2.439327393
16.78822042;-5.442681885;9.183403015;2.700085144
16.80455342;-5.343438263;9.405391388;2.615960083
16.82088542;-4.838837585;8.99674118;2.53557724
16.83721742;-4.741090851;8.549321594;2.719095612
16.85354942;-4.658762054;8.383765869;2.471660156
16.86988242;-4.458478546;8.014483795;2.246977386
16.88621442;-4.378993835;7.773634644;2.396516418
16.90254642;-4.368665314;7.930957489;2.374512177
16.91887842;-4.503834229;7.977211304;2.380948792
16.93521142;-4.519701233;8.154742126;2.498304749
16.95154242;-4.97056366;8.11223053;2.505489807
16.96787442;-5.001998291;8.566685486;2.462828522
16.98546342;-5.080135803;8.873846741;2.679877167
17.00053942;-4.873565369;8.946146393;2.670446777
17.01561542;-4.54814209;8.526568909;2.44785965
17.03069142;-4.003424835;8.059240723;2.302960968
17.04576742;-4.073928223;7.773335266;2.395468597
17.06084342;-4.464765472;7.826624451;2.378553772
17.07591842;-4.677323456;8.048313446;2.276615753
17.09099067;-4.672832794;8.282875671;2.339485016
17.10606667;-4.73300766;8.48899704;2.262095947
17.12114267;-4.698130188;8.540939026;2.410437469
17.13621867;-4.784650269;8.5240242;2.368075562
17.15129467;-4.873715057;8.512498169;2.381697235
17.16636967;-4.71429657;8.676257629;2.253264313
17.18144567;-4.587510223;8.60710144;2.272125092
17.19652167;-4.469555511;8.579259338;2.380200348
17.21159767;-4.563110962;8.388555908;2.411784668
17.22667367;-4.406985626;8.301886139;2.27347229
17.24174967;-4.481530609;8.104746094;2.318079529
17.25682467;-4.68615509;8.242908783;2.387086029
17.27190067;-5.02789444;8.411458282;2.405048676
17.28697667;-5.027145996;8.644972687;2.378254395
17.30205267;-5.123096466;8.638236694;2.462229767
17.31712867;-4.74124054;8.66562973;2.580483856
17.33220467;-4.571643219;8.344098358;2.478096771
17.34727967;-4.196223907;8.098608856;2.437830505
17.36235567;-4.256099396;7.9016185;2.431543579
17.37743167;-4.511318665;7.793842621;2.39636673
17.39250767;-4.611011353;8.105793915;2.422861633
17.40758367;-4.700375519;8.659941559;2.577190704
17.42265867;-4.890031128;9.231752472;2.690205688
17.43773467;-4.892725525;9.524393921;2.739453278
17.45281067;-4.622836761;9.427096252;2.493664398
17.46788667;-4.421056366;8.904532928;2.507136383
17.48296267;-4.367168427;8.494236145;2.398013306
17.49803867;-4.295916595;8.285570068;2.16000824
17.51311467;-4.149820404;8.196954346;2.198478241
17.52818967;-4.261937256;8.287366333;2.221829681
17.54326567;-4.38902298;8.308472443;2.563269653
17.55834167;-4.455185394;8.647667084;2.656675415
17.57341767;-4.895569611;8.344397736;2.72164032
17.58849367;-4.292623444;8.103548584;2.477198639
17.60356867;-3.938759308;7.626490631;2.414479065
17.61864467;-3.916605377;7.577392731;2.669698334
17.63372067;-4.705614624;8.291557617;3.058889008
17.64879667;-5.200635223;9.03655838;2.861299896
17.66387267;-4.665198669;9.347162476;2.420616302
17.67894867;-4.460125122;9.137598267;2.302362213
17.69402367;-4.330195312;8.915759583;2.427352295
17.70909967;-4.283941498;8.696315918;2.05238205
17.72417567;-4.175566864;8.305927734;2.338287506
17.73925167;-3.988755341;8.333171082;2.39980957
17.75432767;-3.9853125;8.008645935;2.157313843
17.76940367;-3.994293823;7.901169434;2.316882019
17.78447867;-4.516857147;8.537346497;2.913092194
17.79955467;-5.138514404;9.20974823;2.906206512
17.81463067;-5.248685303;9.143286438;2.797532501
17.82970667;-4.573589172;8.894354095;2.592608643
17.84478267;-4.063899078;8.306676178;2.542462921
17.85985867;-4.234394531;8.135731659;2.770588531
17.87493367;-4.697681122;8.307424622;2.738405457
17.89000967;-4.457730103;8.237819366;2.34247879
17.90508567;-3.776796112;7.732919312;2.077829132
17.92016167;-3.6389328;7.483687592;2.309846649
17.93523767;-4.263134766;7.898325348;2.637664948
17.95031367;-4.833299103;8.295150146;2.591860199
17.96538867;-4.868475952;8.516539764;2.758314056
17.98046467;-4.400998077;8.750353546;2.544259186
17.99554067;-4.072880402;8.560697937;2.543361053
18.01061667;-4.072581024;8.595276031;2.837050323
18.02569267;-4.381688232;8.760532379;2.894381104
18.04076867;-4.207899628;8.415948944;2.753374329
18.05584367;-3.702999573;8.316405945;2.499951324
18.07091967;-3.714076538;8.07705368;2.474653931
18.08599942;-3.767814789;8.088579712;2.654280396
18.10107542;-4.27316391;8.100405121;2.810854797
18.11615142;-4.339625702;8.224347382;2.641257477
18.13122742;-4.431983643;8.237819366;2.630180511
18.14630242;-4.392615509;8.337362366;2.527194672
18.16137842;-4.252955933;8.539442139;2.664159851
18.17645442;-4.51071991;8.72655304;2.818488922
18.19153042;-4.374054108;8.912616119;2.851121063
18.20660642;-4.006717987;8.873547363;2.674338684
18.22168242;-4.191433868;8.366701355;2.761307831
18.23675742;-4.564009094;8.786278839;3.034789124
18.25183342;-5.076393585;9.405241699;3.290756836
18.26690942;-4.85814743;9.906399536;3.017275543
18.28198542;-4.225712585;9.526938629;2.709814911
18.29706142;-3.748055878;8.624315643;3.010988617
18.31213742;-3.381318512;7.526199188;2.409689026
18.32721242;-3.475622406;6.780000916;2.48288681
18.34228842;-4.301754456;6.967411194;2.835553436
18.35736442;-4.823569336;7.940088501;2.68646347
18.37244042;-4.948110352;8.713530121;2.706072693
18.38751642;-5.165608063;9.415420532;3.138523407
18.40259242;-5.259163513;9.888885956;3.193010101
18.41766742;-5.155578918;9.580527191;2.861000519
18.43274342;-4.598886566;9.241781616;2.906805267
18.44781942;-4.442162476;8.797206116;2.897225189
18.46289542;-4.174219666;8.454718323;2.710563354
18.47797142;-3.763473816;8.258626099;2.599644012
18.49304742;-3.672313385;7.968080292;2.693947906
18.50812242;-3.917952576;7.590116272;2.73571106
18.52319842;-3.908372498;7.207212524;2.510878601
18.53827442;-4.047133942;6.920708313;2.637215881
18.55335042;-4.457580414;7.029981079;2.901715851
18.56842642;-4.868625641;7.427404633;2.9368927
18.58350242;-4.799469452;7.961793365;2.874173126
18.59857742;-4.947810974;8.369695129;3.168760529
18.61365342;-5.066065063;8.93477005;3.351530457
18.62872942;-4.874164124;9.147328033;2.982847137
18.64380542;-4.371060333;8.358917542;2.772085419
18.65888142;-3.73144043;7.71435791;2.645149384
18.67395742;-3.764970703;7.220534821;2.423161011
18.68903242;-4.19592453;7.114555206;2.516566772
18.70410842;-4.523742828;7.396269379;2.673141174
18.71918442;-4.522545319;7.781418457;2.732268219
18.73426042;-4.511767731;7.950417023;2.805765381
18.74933642;-4.616100769;8.315956879;2.926713867
18.76441242;-4.796475677;8.441246338;3.089275818
18.77948742;-4.858596497;8.452772369;3.15334259
18.79456342;-4.683760071;8.416847076;3.074456635
18.80963942;-4.612807617;8.360115051;3.20842804
18.82471542;-4.549189911;8.510402527;3.281775513
18.83979142;-4.298012238;8.46908844;3.199895782
18.85486742;-4.075275421;8.250991974;3.324736176
18.86994242;-4.167034607;8.425379333;3.624562683
18.88501842;-4.42524765;8.537346497;3.419788513
18.90009442;-4.258195038;8.265362091;3.150947571
18.91517042;-4.113146667;8.063132629;3.035387878
18.93024642;-4.279899902;8.269703064;3.092119904
18.94532242;-4.575834503;8.550369415;3.221450958
18.96039742;-4.812492371;9.162446594;3.186872864
18.97547342;-4.529131622;9.193432159;3.082240448
18.99054942;-4.273313599;9.417216797;3.017574921
19.00562542;-4.652774506;9.110654297;3.114273834
19.02070142;-4.601281586;9.543404388;3.330574036
19.03577742;-5.01502121;9.465865631;3.264261932
19.05085242;-3.911366272;9.209149475;2.732567596
19.06592842;-3.613336029;8.626111908;2.78480896
19.0810045;-3.359014893;8.186326447;2.886447601
19.0960805;-3.751947784;7.764353943;2.828817444
19.1111565;-3.348087616;7.508236542;2.665806427
19.1262325;-3.844006348;7.408693542;3.278781738
19.1413075;-4.443659363;8.834029541;3.795357513
19.1563835;-5.291645966;9.87316864;3.642375641
19.1714595;-4.621489563;9.774673462;3.27384201
19.1865355;-3.826941833;9.344917145;3.462150421
19.2016115;-3.655099182;8.537496185;3.303929443
19.2166875;-3.601061554;7.992479553;3.156186676
19.2317625;-3.41080719;7.650291138;3.060385895
19.2468385;-3.30437851;7.745642853;3.170107727
19.2619145;-3.310665436;7.604636078;3.238964539
19.2769905;-3.501967621;7.830666046;3.38506073
19.2920665;-3.958069153;7.985444183;3.305576019
19.3071425;-3.761677551;7.70028717;3.337010651
19.3222175;-3.76422226;7.625143433;3.423979797
19.3372935;-3.842210083;7.872728577;3.489693146
19.3523695;-3.972139893;7.963290253;3.53714447
19.3674455;-3.820954285;7.9108992;3.700754242
19.3825215;-3.636986847;7.702083435;3.735332336
19.3975975;-3.384162598;7.388485565;3.69162323
19.4126725;-3.149151306;7.335495758;3.531905365
19.4277485;-3.23058197;7.321724396;3.60151062
19.4428245;-3.438798981;7.252568207;3.615731049
19.4579005;-3.71033432;7.442373505;3.567680969
19.4729765;-3.758085022;8.090974731;3.67994751
19.4880525;-3.675307159;8.395142212;3.835923157
19.5031275;-3.789669342;8.457712097;3.947441254
19.5182035;-3.643273773;8.281229095;3.94669281
19.5332795;-3.32772995;8.108488312;3.971690826
19.5483555;-3.279530182;8.127498779;4.186643829
19.5634315;-3.623365173;8.176147614;4.242328033
19.5785075;-3.754642181;8.170609131;4.244573364
19.5935825;-3.622167664;8.237070923;4.245471497
19.6086585;-3.47981369;8.514294434;4.311933289
19.6237345;-3.579207001;8.639733582;4.210444336
19.6388105;-3.804338837;8.472680969;4.091292114
19.6538865;-3.567082214;7.93440033;4.088148651
19.6689615;-3.334615631;7.817792816;3.928730164
19.6840375;-3.697760468;8.010741577;4.155358887
19.6991135;-3.993844757;8.18363205;4.193379822
19.7141895;-4.127217407;8.744964752;4.205205231
19.7292655;-3.785328369;8.477471008;4.326453094
19.7443415;-3.719016266;8.558602295;4.202061768
19.7594165;-3.993994446;8.857680359;4.415068817
19.7744925;-3.993395691;8.929381256;4.220323792
19.7895685;-3.607947235;8.50770813;4.291276245
19.8046445;-3.476670227;8.087980957;4.085454254
19.8197205;-3.600762177;7.816595306;3.918551331
19.8347965;-3.666475525;7.977959747;4.08829834
19.8498715;-3.717818756;8.209827576;4.413122864
19.8649475;-3.814367981;8.385412445;4.399650879
19.8800235;-3.803889771;8.375832367;4.051325226
19.8950995;-3.362757111;7.849676514;4.077371063
19.9101755;-3.377576294;7.753875732;4.289180603
19.9252515;-3.698957977;7.750582581;4.408781891
19.9403265;-3.510948944;7.970625;4.232747955
19.9554025;-3.183430023;7.956254883;4.185146942
19.9704785;-3.168161774;7.766898651;4.19831955
19.9855545;-3.456013184;7.861501923;4.189338226
20.0006305;-3.566184082;8.099506989;4.125570831
20.0157065;-3.481310577;8.213869171;4.206702118
20.0307815;-3.3522789;8.362210693;4.18185379
20.0458575;-3.189417572;8.241561584;4.130959625
20.0609335;-3.296445007;8.01628006;4.164938965
20.0760095;-3.351231079;7.948770447;4.125271454
20.09108504;-3.385360107;7.868686981;4.010759583
20.10616104;-3.463198242;7.725734253;3.989503784
20.12123604;-3.431314545;7.784262543;4.11748764
20.13631204;-3.583398285;8.006250916;4.259392548
20.15138804;-3.570075989;8.198151855;4.271517334
20.16646404;-3.588936768;8.270601196;4.187392273
20.18154004;-3.48220871;8.099207611;4.082759857
20.19661604;-3.422033844;7.940537567;4.176764374
20.21169104;-3.604055328;8.118667145;4.241280212
20.22676704;-3.701502686;8.416996765;4.432732086
20.24184304;-3.71153183;8.787925415;4.380191345
20.25691904;-3.489393768;9.012757874;4.43228302
20.27199504;-3.45406723;9.010213165;4.485721893
20.28707104;-3.36051178;8.929381256;4.341871033
20.30214604;-3.288511505;8.434360657;4.177662506
20.31722204;-3.259022827;7.883805542;4.009562073
20.33229804;-3.269351349;7.502248993;3.737577667
20.34737404;-3.388802948;7.37276825;3.873644714
20.36245004;-3.715723114;7.714058533;4.135599976
20.37752604;-3.764970703;8.227041779;4.381688232
20.39260104;-3.66587677;8.669970703;4.494104462
20.40767704;-3.298091583;8.865015106;4.576582947
20.42275304;-3.451372833;8.785829773;4.502187653
20.43782904;-3.456013184;8.576564941;4.424798584
20.45290504;-3.478765869;8.523575134;4.560117188
20.46798104;-3.385360107;8.689879303;4.477489014
20.48305604;-3.18492691;8.609346771;4.342619476
20.49813204;-3.087928619;8.372090149;4.198618927
20.51320804;-3.078348541;8.130193176;4.10820694
20.52828404;-3.292553101;7.927514648;4.096531219
20.54336004;-3.310515747;7.74249939;4.025578766
20.55843604;-3.391946411;7.832162933;3.980073395
20.57351104;-3.280578003;7.856562195;4.172273712
20.58858704;-3.400628357;7.938142548;4.312681732
20.60366304;-3.353626099;7.895181885;4.27316391
20.61873904;-3.054248657;7.816445618;4.372108154
20.63381504;-3.13702652;7.880362701;4.434977417
20.64889104;-3.319946136;7.861052856;4.320764923
20.66396604;-3.167113953;7.784711609;4.15146698
20.67904204;-2.978057098;7.769293671;4.144132233
20.69411804;-3.108735352;7.957302704;4.314028931
20.70919404;-3.241658936;8.305778046;4.383634186
20.72427004;-3.246448975;8.445737;4.410278778
20.73934604;-3.098107452;8.434210968;4.408332825
20.75442104;-2.953059082;8.394842834;4.330345001
20.76949704;-2.892884216;8.254135437;4.326004028
20.78457304;-2.891087952;8.112679596;4.324507141
20.79964904;-3.028352509;8.064030762;4.367467804
20.81472504;-3.158132629;8.160280609;4.34217041
20.82980104;-3.116219788;8.233179016;4.262985077
20.84487604;-3.161725159;8.272397461;4.179907837
20.85995204;-3.285068665;8.28886322;4.282893677
20.87502804;-3.489842834;8.38017334;4.356540527
20.89010404;-3.516936493;8.461903381;4.238436127
20.90518004;-3.214565277;8.419242096;4.002077637
20.92025604;-2.960693207;8.334368591;4.083208923
20.93533104;-3.273692322;8.453520813;4.336482239
20.95040704;-3.398532715;8.854387207;4.408332825
20.96548304;-3.425476685;9.099128265;4.319118347
20.98055904;-3.246748352;9.101074219;4.28019928
20.99563504;-3.307222595;8.734336853;3.962559814
21.01071104;-3.160677338;7.945626984;3.771407318
21.02578604;-2.862497406;7.634873199;3.715423737
21.04086204;-3.037782898;7.673642578;3.95492569
21.05593804;-3.596121826;8.148604889;4.439617767
21.07101404;-3.843407593;9.017248535;4.569697266
21.08608679;-4.038302307;9.615404663;4.129163361
21.10116279;-3.464246063;9.317524109;4.08006546
21.11623779;-3.194656677;8.74406662;4.174219666
21.13131379;-3.275937653;8.23856781;4.108955383
21.14638979;-3.326682129;7.989186401;4.020040283
21.16146579;-2.792293396;8.070916443;4.058959351
21.17654179;-2.623893585;8.16252594;3.978726196
21.19161779;-2.713557129;8.228838043;3.997586975
21.20669279;-2.831811218;8.249495087;4.138294373
21.22176879;-2.844983826;8.203989716;4.178560638
21.23684479;-2.896626434;8.273744659;4.045936432
21.25192079;-2.80352005;8.257578278;3.936364288
21.26699679;-2.917433167;8.252937927;3.879632263
21.28207279;-3.084485779;8.248297577;3.952830048
21.29714879;-3.144660645;8.404871979;4.053420868
21.31222379;-3.0855336;8.452023926;4.022435303
21.32729979;-2.897823944;8.289761353;3.887865143
21.34237579;-2.713706818;8.115074615;3.918551331
21.35745179;-2.898871765;8.146359558;4.080364838
21.37252779;-3.078348541;8.246052246;4.043541412
21.38760379;-2.929408264;8.220754852;3.963907013
21.40267879;-2.624941406;8.264014893;3.97243927
21.41775479;-2.834355927;8.413553925;4.103865967
21.43283079;-3.219055939;8.625064087;4.250710602
21.44790679;-3.129841461;8.732989655;4.036506042
21.46298279;-2.909649353;8.48660202;3.90927063
21.47805879;-2.816842346;8.352480927;3.960464172
21.49313379;-2.933898926;8.41759552;4.057163086
21.50820979;-3.140319672;8.497529297;4.224964142
21.52328579;-3.101400604;8.637338562;4.217479706
21.53836179;-2.856060791;8.674461365;4.0742276
21.55343779;-2.793640594;8.395890656;4.100423126
21.56851379;-2.951861572;8.414002991;4.161645813
21.58358979;-3.28791275;8.426427155;4.294719086
21.59866479;-3.159330139;8.41999054;4.09997406
21.61374079;-2.924618225;8.320746918;3.976331177
21.62881679;-2.796933746;8.222551117;4.095034332
21.64389279;-2.978955231;8.380323029;4.146976318
21.65896879;-3.237168274;8.491990814;4.226610718
21.67404479;-3.052452393;8.483308868;4.156556396
21.68911979;-2.786904602;8.384963379;4.092339935
21.70419579;-2.812950439;8.391100616;4.167483673
21.71927179;-3.055296478;8.601413269;4.42180481
21.73434779;-3.090772705;8.782835999;4.344415741
21.74942379;-2.781366119;8.595575409;4.167034607
21.76449979;-2.631078644;8.253087616;4.067341919
21.77957479;-2.801873474;8.163873138;4.101321259
21.79465079;-3.118614807;8.177943878;4.114493866
21.80972679;-2.965183868;8.272397461;4.152365112
21.82480279;-2.800376587;8.351283417;4.129762115
21.83987879;-2.751128998;8.211773529;4.13739624
21.85495479;-2.824326782;8.236621857;4.223018188
21.87002979;-3.041375427;8.383017426;4.38662796
21.88510579;-3.060685272;8.460107117;4.275109863
21.90018179;-2.905907135;8.352780304;4.079915771
21.91525779;-2.704426117;8.146060181;3.930676117
21.93033379;-2.843486938;8.120613098;4.058809662
21.94540979;-2.944227448;8.472680969;4.207899628
21.96048579;-2.895728302;8.798852692;4.227209473
21.97556079;-2.821183319;8.701405334;4.02273468
21.99063679;-2.680475922;8.375982056;3.936663666
22.00571279;-2.731220398;8.114326172;3.934418335
22.02078879;-2.946472778;8.21521637;4.137545929
22.03586479;-2.930007019;8.594976654;4.251159668
22.05094079;-2.840792542;8.680149536;4.171674957
22.06601579;-2.72867569;8.464597778;4.21343811
22.08109179;-2.880160675;8.446485443;4.204905853
22.096168;-3.100801849;8.401878204;4.153113556
22.111244;-3.063679047;8.457263031;4.196672974
22.12632;-2.710263977;8.468489685;4.069287872
22.141396;-2.624642029;8.184679871;3.938759308
22.156471;-2.641556854;8.013136597;4.002227325
22.171547;-3.030298462;8.159532166;4.021088104
22.186623;-2.936293945;8.506211243;3.976780243
22.201699;-2.783312073;8.630003815;4.040547638
22.216775;-2.935395813;8.865015106;4.160597992
22.231851;-2.972668304;9.066496124;4.229454803
22.246926;-2.700384521;9.087901611;4.195176086
22.262002;-2.597847748;8.927584991;4.085753632
22.277078;-2.707719269;8.598419495;3.900738373
22.292154;-2.647245026;8.151598663;3.76062973
22.30723;-2.599644012;8.147706757;3.817511444
22.322306;-2.742147675;8.428522797;3.969146118
22.337381;-2.8187883;8.699758759;3.941304016
22.352457;-2.701432343;8.760831757;4.070335693
22.367533;-2.800526276;8.762029266;4.046235809
22.382609;-2.88539978;8.596772919;3.929777985
22.397685;-2.608775024;8.383466492;3.815116425
22.412761;-2.702180786;8.189170532;3.907174988
22.427837;-2.663561096;8.350834351;3.816912689
22.442912;-2.596949615;8.399932251;3.903881836
22.457988;-2.560724945;8.552315369;3.96660141
22.473064;-2.668351135;8.569828949;3.9362146
22.48814;-2.718347168;8.460406494;3.915258179
22.503216;-2.718047791;8.552015991;3.758234711
22.518292;-2.752326508;8.637338562;3.861370239
22.533367;-2.656226349;8.747210083;3.855233002
22.548443;-2.525847473;8.723858643;3.796105957
22.563519;-2.476749573;8.492290192;3.796105957
22.578595;-2.632575531;8.24440567;3.752845917
22.593671;-2.653382263;8.264763336;3.794758759
22.608747;-2.8678862;8.425678711;3.880081329
22.623822;-3.037333832;8.637787628;3.969894562
22.638898;-3.176244965;8.777297516;3.919449463
22.653974;-3.072810059;8.667126617;3.822451172
22.66905;-2.949466553;8.406817932;3.77589798
22.684126;-2.969075775;8.297245789;3.796555023
22.699202;-2.952460327;8.468339996;3.659440155
22.714278;-2.895279236;8.776100006;3.496279449
22.729353;-2.908751221;8.794811096;3.495381317
22.744429;-2.973716125;8.933123474;3.381318512
22.759505;-2.850821686;8.800648956;3.283422089
22.774581;-2.956352234;8.720266113;3.370840302
22.789657;-3.145109711;8.751850433;3.508404236
22.804733;-2.926863556;8.826245728;3.462449799
22.819809;-2.829565887;8.558452606;3.416046295
22.834884;-2.764750671;8.529113617;3.627706146
22.84996;-2.770438843;8.68793335;3.556304626
22.865036;-2.868185577;8.806337128;3.731739807
22.880112;-2.763852539;9.053922272;3.625161438
22.895188;-2.668051758;8.994346161;3.632346497
22.910264;-2.47704895;8.763077087;3.484603729
22.925339;-2.581381989;8.630452881;3.412453766
22.940415;-2.795436859;8.603957977;3.338357849
22.955491;-2.854414215;8.625363464;3.229085083
22.970567;-2.826272736;8.832233276;3.378624115
22.985643;-2.890788574;9.201964417;3.488645325
23.000719;-2.934946747;9.136101379;3.503614197
23.015795;-2.842439117;8.789571991;3.363206177
23.03087;-2.640209656;8.513396301;3.233276367
23.045946;-2.531535645;8.432414703;3.255729675
23.061022;-2.830314331;8.671018524;3.323388977
23.076098;-2.807711334;8.98386795;3.257675629
23.0911735;-2.705024872;8.926836548;3.298091583
23.1062495;-2.563569031;8.778495026;3.263064423
23.1213245;-2.626737671;8.758287048;3.263064423
23.1364005;-2.682122498;8.888965302;3.199596405
23.1514765;-2.799628143;8.999884644;3.175795898
23.1665525;-2.730771332;8.872649231;3.108286285
23.1816285;-2.478096771;8.750054169;3.022664337
23.1967045;-2.563119965;8.929680634;3.079396362
23.2117805;-2.775528259;9.220076752;3.225492554
23.2268555;-3.015030212;9.237141266;3.118465118
23.2419315;-2.729573822;8.877738647;2.959046631
23.2570075;-2.324067078;8.643326111;2.962040405
23.2720835;-2.607577515;8.656049652;3.082988892
23.2871595;-2.92057663;8.67970047;3.225642242
23.3022355;-2.754571838;8.68209549;3.091521149
23.3173115;-2.515518951;8.471333771;2.922073517
23.3323865;-2.427052917;8.364006958;2.822680206
23.3474625;-2.634072418;8.794212341;3.084934845
23.3625385;-2.976410522;9.218879242;3.262765045
23.3776145;-2.855761414;9.519903259;3.201841736
23.3926905;-2.44785965;9.394164734;3.017275543
23.4077665;-2.2839505;8.833730164;2.963237915
23.4228415;-2.413431244;8.721313934;3.034938812
23.4379175;-2.717449036;8.790320435;3.213816833
23.4529935;-2.728076935;8.824000397;3.090024261
23.4680695;-2.546803894;8.70544693;3.05858963
23.4831455;-2.508184204;8.640631714;3.085234222
23.4982215;-2.549947357;8.732690277;3.23761734
23.5132975;-2.915786591;9.086105347;3.33820816
23.5283725;-2.974614258;9.123078461;3.233575745
23.5434485;-2.668800201;9.075627136;3.123853912
23.5585245;-2.637215881;8.966953125;3.117866364
23.5736005;-2.8479776;8.939560089;3.246149597
23.5886765;-2.893183594;8.995244293;3.335364075
23.6037525;-2.676883392;8.880283356;3.125500488
23.6188285;-2.478994904;8.840915222;2.909799042
23.6339035;-2.577639771;8.526119843;2.976560211
23.6489795;-2.841391296;8.725804596;3.009940796
23.6640555;-2.934497681;9.072333984;3.082090759
23.6791315;-2.823278961;9.124575348;3.048560486
23.6942075;-2.683170319;9.141340485;3.040926361
23.7092835;-2.887495422;9.136999512;3.193459167
23.7243585;-2.665806427;9.003028107;3.276686096
23.7394345;-2.623893585;8.987759857;3.18028656
23.7545105;-2.612217865;8.879385223;3.043620758
23.7695865;-2.527494049;8.583300934;2.934198303
23.7846625;-2.590063934;8.462951202;3.037782898
23.7997385;-2.769989777;8.834328918;3.122506714
23.8148145;-2.868035889;9.27755722;3.273243256
23.8298895;-2.998863831;9.450298004;3.213367767
23.8449655;-2.926863556;9.284742279;3.151546326
23.8600415;-2.784659271;8.972042542;3.06442749
23.8751175;-2.795885925;8.833131409;3.037034454
23.8901935;-2.76729538;8.786428528;3.015179901
23.9052695;-2.559976501;8.607700195;2.911445618
23.9203455;-2.436034241;8.464747467;3.000809784
23.9354205;-2.356250153;8.487350464;3.042123871
23.9504965;-2.637664948;8.558452606;3.272045746
23.9655725;-2.676434326;8.808582458;3.185226288
23.9806485;-2.490371246;8.915460205;3.158132629
23.9957245;-2.398911438;9.101223907;3.216062164
24.0108005;-2.602787476;9.202413483;3.371738434
24.0258755;-2.511627045;9.264384613;3.318149872
24.0409515;-2.3237677;9.231453094;3.167113953
24.0560275;-2.102078705;8.979826355;3.031196594
24.0711035;-2.011217651;8.647816772;3.007695465
24.08618363;-2.238594818;8.560099182;3.14750473
24.10125963;-2.394420776;8.783584442;3.107986908
24.11633562;-2.596201172;8.991352386;3.13702652
24.13141063;-2.594853973;9.210346985;2.977458344
24.14648662;-2.523153076;9.245074768;2.954855347
24.16156263;-2.456541595;9.344019012;3.085084534
24.17663863;-2.749033356;9.330097961;3.246598663
24.19171462;-2.596201172;9.464518433;3.068918152
24.20679063;-2.47121109;9.191935272;3.033292236
24.22186663;-2.213596802;9.148226166;3.115022278
24.23694163;-2.394420776;9.095386047;3.247945862
24.25201763;-2.659070435;9.033863983;3.263663177
24.26709363;-2.686912537;8.982071686;3.033591614
24.28216963;-2.403551788;8.831185455;2.824476471
24.29724562;-2.620301056;8.711883545;2.905009003
24.31232163;-2.780318298;9.051527252;3.106939087
24.32739662;-2.833308105;9.237590332;3.176993408
24.34247263;-2.549049225;9.28114975;3.121009827
24.35754863;-2.342029724;9.084159393;3.126398621
24.37262462;-2.396965485;8.861871643;3.197500763
24.38770063;-2.44546463;8.92189682;3.214116211
24.40277663;-2.352507935;8.998088379;3.205733643
24.41785262;-2.335293732;8.963510284;3.185525665
24.43292763;-2.237397308;8.979077911;3.162623291
24.44800362;-2.314337311;8.816965027;3.198099518
24.46307963;-2.384990387;8.731792145;3.179837494
24.47815562;-2.341281281;8.746461639;3.257675629
24.49323163;-2.419119415;8.74990448;3.142415314
24.50830763;-2.640958099;8.676107941;3.221900024
24.52338263;-2.389780426;8.725505219;3.125799866
24.53845863;-2.192939758;8.555159454;3.025209045
24.55353462;-2.408641205;8.665779419;3.276835785
24.56861063;-2.727927246;8.987759857;3.327879639
24.58368663;-2.605182495;8.98865799;3.205733643
24.59876262;-2.339934082;8.796307983;3.090473328
24.61383863;-2.340532837;8.673712921;3.148851929
24.62891362;-2.435136108;8.824150085;3.213816833
24.64398963;-2.672093353;9.067693634;3.333268433
24.65906563;-2.441423035;9.18400177;3.189716949
24.67414162;-2.305805054;8.846902771;3.033292236
24.68921763;-2.493664398;8.537196808;3.092119904
24.70429362;-2.512375488;8.723559265;3.030448151
24.71936963;-2.705623627;8.947194214;3.327430573
24.73444462;-2.731669464;9.212442627;3.398981781
24.74952063;-2.54964798;9.355844421;3.291056213
24.76459663;-2.583627319;9.146130524;3.283422089
24.77967262;-2.597997437;8.985813904;3.25049057
24.79474863;-2.424957275;8.98386795;3.254831543
24.80982463;-2.519710236;9.001680908;3.281925201
24.82490062;-2.638712769;9.123677216;3.182531891
24.83997563;-2.46537323;9.023086395;3.200793915
24.85505162;-2.460283813;8.841064911;3.15573761
24.87012763;-2.576741638;8.906628571;3.220702515
24.88520363;-2.684367828;9.010362854;3.198398895
24.90027962;-2.702629852;9.135053558;3.194956055
24.91535563;-2.747237091;9.135053558;3.246598663
24.93043063;-2.548001404;9.060508575;3.101550293
24.94550663;-2.435435486;8.965456238;3.041525116
24.96058262;-2.462529144;9.019493866;3.102298737
24.97565863;-2.582130432;9.123377838;3.146007843
24.99073463;-2.604284363;9.173673248;3.196752319
25.00581062;-2.365680542;9.103169861;2.996169434
25.02088663;-2.447560272;8.922495575;2.996019745
25.03596162;-2.442470856;8.948092346;3.075504456
25.05103763;-2.514770508;8.96515686;3.03868103
25.06611363;-2.57539444;9.01200943;3.016377411
25.08118962;-2.390828247;9.039701843;2.871628418
25.09626137;-2.359842682;8.748856659;2.791245575
25.11133738;-2.367925873;8.656498718;2.983595581
25.12641338;-2.430046692;8.856033783;2.986589355
25.14148838;-2.55892868;8.921298065;3.022514648
25.15656438;-2.468666382;9.078920288;3.015179901
25.17164037;-2.3834935;9.141340485;2.952759705
25.18671638;-2.435734863;9.001830597;2.976111145
25.20179237;-2.445614319;9.006920013;2.952610016
25.21686838;-2.362537079;9.029972076;2.853366394
25.23194438;-2.356250153;8.943601685;2.819387054
25.24701938;-2.461331635;8.868008881;2.738106079
25.26209538;-2.291135559;8.854237518;2.827769623
25.27717137;-2.329306183;8.9102211;2.800226898
25.29224738;-2.387235718;9.037606201;2.955154724
25.30732338;-2.374811554;9.253756714;3.026256866
25.32239937;-2.354753265;9.306297455;2.988535309
25.33747538;-2.49695755;9.092991028;3.030148773
25.35255037;-2.367476807;8.989107056;2.911595306
25.36762638;-2.319277039;8.853189697;2.832559662
25.38270238;-2.470911713;8.936117249;2.877166901
25.39777838;-2.420466614;9.131461029;2.906056824
25.41285438;-2.468666382;9.110654297;2.914589081
25.42793037;-2.314337311;9.10915741;2.822829895
25.44300638;-2.467019806;9.077124023;2.867287445
25.45808137;-2.568209381;9.142687683;2.914589081
25.47315738;-2.497406616;9.249415741;2.865940247
25.48823338;-2.584824829;9.239386597;2.874173126
25.50330937;-2.562221832;9.177415466;2.810256042
25.51838538;-2.338586884;9.155560913;2.750679932
25.53346138;-2.469414825;9.15825531;2.938239899
25.54853737;-2.524799652;9.272318115;2.816243591
25.56361238;-2.517764282;8.992998962;2.769690399
25.57868837;-2.392624512;8.850644989;2.683320007
25.59376438;-2.472857666;8.885223083;2.778821411
25.60884038;-2.571053467;9.071585541;2.9169841
25.62391638;-2.579585724;9.421857147;2.960842896
25.63899238;-2.536325684;9.502988434;2.931653595
25.65406837;-2.505489807;9.20510788;2.9568013
25.66914338;-2.430046692;8.951086121;2.779420166
25.68421937;-2.47360611;8.795260162;2.840792542
25.69929538;-2.441273346;8.939260712;2.85965332
25.71437138;-2.398462372;9.005423126;2.925516357
25.72944737;-2.505040741;9.010662231;2.948867798
25.74452338;-2.324366455;9.032067719;2.857707367
25.75959938;-2.400258636;8.994196472;2.947071533
25.77467438;-2.573448486;9.169182587;2.984793091
25.78975038;-2.545307007;9.27995224;2.936443634
25.80482637;-2.455643463;9.160201263;2.868484955
25.81990238;-2.311942291;9.036259003;2.877017212
25.83497837;-2.415377197;8.904981995;2.867137756
25.85005438;-2.42555603;8.955277405;2.871927795
25.86513038;-2.326911163;9.010213165;2.890638885
25.88020538;-2.489622803;8.915759583;2.888692932
25.89528138;-2.446362762;8.89151001;2.845283203
25.91035737;-2.404000854;8.847202148;2.897524567
25.92543338;-2.470163269;9.012308807;2.97206955
25.94050938;-2.492466888;9.277257843;3.060535583
25.95558537;-2.527943115;9.40748703;3.040477295
25.97066138;-2.59754837;9.391769714;3.043620758
25.98573637;-2.500999146;9.178762665;2.945574646
26.00081238;-2.410587158;8.941206665;2.851869507
26.01588838;-2.327360229;8.90902359;2.836451569
26.03096437;-2.448159027;8.796607361;2.830913086
26.04604038;-2.320175171;8.684939575;2.741698608
26.06111637;-2.213596802;8.585396576;2.752326508
26.07619238;-2.398462372;8.768765259;2.89947052
26.09127163;-2.796634369;9.23085434;3.058140564
26.10634763;-2.834804993;9.52214859;3.087629242
26.12142362;-2.575693817;9.390871582;2.893932037
26.13649963;-2.327659607;9.122479706;2.874771881
26.15157563;-2.355651398;9.119186554;2.891537018
26.16665162;-2.587818604;9.286239166;2.984643402
26.18172763;-2.457888794;9.356742554;2.869981842
26.19680263;-2.164199524;9.254654846;2.631827087
26.21187863;-2.226470032;9.032067719;2.675835571
26.22695462;-2.346969452;9.050030365;2.827470245
26.24203063;-2.507286072;9.141340485;2.878514099
26.25710663;-2.406246185;9.258397064;2.933000793
26.27218262;-2.342029724;9.213789825;2.936144257
26.28725863;-2.441123657;9.158704376;2.991080017
26.30233362;-2.52734436;9.263037415;3.126099243
26.31740963;-2.400857391;9.309291229;3.094215546
26.33248563;-2.461481323;9.167236633;3.015928345
26.34756162;-2.355052643;8.88567215;2.849773865
26.36263763;-2.281854858;8.564140778;2.76145752
26.37771363;-2.198029175;8.583001556;2.827769623
26.39278962;-2.503094788;8.804540863;2.955454102
26.40786463;-2.540966034;9.132658539;3.002306671
26.42294063;-2.444716187;9.196276245;2.975811768
26.43801663;-2.404150543;9.004075928;2.997516632
26.45309262;-2.427501984;8.934620361;2.980302429
26.46816863;-2.449057159;8.977431335;3.007994843
26.48324463;-2.397863617;9.119186554;3.021915894
26.49832062;-2.340083771;9.212742004;2.958896942
26.51339563;-2.297272797;9.060957642;2.856060791
26.52847162;-2.318678284;8.85753067;2.868185577
26.54354763;-2.306852875;8.841813354;2.872825928
26.55862363;-2.411485291;8.753796387;2.958447876
26.57369962;-2.39980957;8.950786743;3.031046906
26.58877563;-2.487676849;9.089099121;3.21187088
26.60385163;-2.574645996;9.088200989;3.259172516
26.61892663;-2.60578125;9.084907837;3.210074615
26.63400262;-2.487078094;8.998238068;3.123853912
26.64907863;-2.520907745;8.951235809;3.033591614
26.66415463;-2.551593933;8.906179504;2.915636902
26.67923062;-2.459834747;8.854836273;2.858455811
26.69430663;-2.501298523;8.867859192;2.858904877
26.70938263;-2.536924438;8.980275421;2.789598999
26.72445763;-2.659369812;9.101822662;2.858755188
26.73953363;-2.842289429;9.341174927;2.841091919
26.75460962;-2.426005096;9.018446045;2.949017487
26.76968563;-2.682421875;9.085955658;2.885848846
26.78476163;-2.633174286;8.976084137;2.899620209
26.79983762;-2.630180511;8.809480591;2.888543243
26.81491363;-2.631078644;8.816216583;2.964435425
26.82998963;-2.662064209;8.969797211;3.095113678
26.84506463;-2.719544678;9.074878693;3.08897644
26.86014062;-2.717748413;9.070088654;3.102897491
26.87521663;-2.986439667;9.079668732;2.926713867
26.89029263;-2.945424957;9.027277679;2.870281219
26.90536862;-2.814147949;9.042096863;2.890938263
26.92044463;-2.826572113;9.173822937;2.863694916
26.93552063;-2.704575806;9.223968658;2.853665771
26.95059563;-2.721790009;9.011859741;2.974165192
26.96567163;-2.644999695;8.950637054;2.873274994
26.98074762;-2.701282654;8.833281097;2.760858765
26.99582363;-2.666255493;8.869056702;2.782264252
27.01089963;-2.632425842;8.952732697;2.849773865
27.02597562;-2.634970551;9.034762115;2.866988068
27.04105163;-2.536325684;9.097781067;2.955005035
27.05612662;-2.537822571;9.030870209;3.060834961
27.07120263;-2.419418793;8.997339935;2.957549744
27.08627862;-2.383942566;8.865464172;2.953807526
27.10135092;-2.407593384;8.912316742;2.901566162
27.11642692;-2.482587433;8.793463898;3.056643677
27.13150292;-2.53318222;8.884923706;2.974015503
27.14657892;-2.589614868;9.035660248;2.925067291
27.16165392;-2.669249268;9.17576889;2.837948456
27.17672992;-2.524500275;8.643775177;2.84917511
27.19180592;-2.733166351;8.735534363;2.761307831
27.20688192;-2.758014679;8.80963028;2.66071701
27.22195792;-2.740501099;8.896300049;2.798730011
27.23703392;-2.888543243;8.963959351;2.714006195
27.25210992;-2.921325073;9.05766449;2.807561646
27.26718492;-2.963986359;9.191336517;2.783910828
27.28226092;-3.003803558;9.179960175;2.786305847
27.29733692;-2.981799316;9.226663055;2.72164032
27.31241292;-2.94632309;8.887318726;2.594404907
27.32748892;-2.898572388;9.004524994;2.650538177
27.34256492;-2.936743011;9.141490173;2.683320007
27.35764092;-2.84678009;8.914562073;2.811453552
27.37271592;-2.785707092;8.890611877;2.685715027
27.38779192;-2.860701141;8.863069153;2.724484406
27.40286792;-2.805765381;8.749605103;2.665357361
27.41794392;-2.877166901;8.78029129;2.689307556
27.43301992;-2.935545502;8.878786469;2.756218414
27.44809592;-3.023861847;9.192084961;2.659070435
27.46317192;-2.936593323;9.053173828;2.777923279
27.47824692;-2.975063324;9.357041931;2.895428925
27.49332292;-3.010539551;9.418414307;2.842588806
27.50839892;-2.90530838;9.250463562;2.723586273
27.52347492;-2.863096161;9.094188538;2.687361603
27.53855092;-2.807411957;9.056317291;2.547402649
27.55362692;-2.845732269;9.152567139;2.683769073
27.56870292;-2.946173401;9.261540527;2.658621368
27.58377792;-3.001558228;9.231453094;2.722987518
27.59885392;-2.857557678;9.27755722;2.776426392
27.61392992;-2.976111145;9.135951691;2.708617401
27.62900592;-3.020868073;8.869505768;2.714754639
27.64408192;-3.018173676;8.903036041;2.750530243
27.65915792;-2.974763947;9.011560364;2.765499115
27.67423392;-3.010090485;9.0681427;2.798430634
27.68930892;-2.87611908;9.098828888;2.850522308
27.70438492;-2.887046356;8.801696777;2.814147949
27.71946092;-2.843187561;8.712931366;2.754721527
27.73453692;-2.972817993;8.669671326;2.718796234
27.74961292;-3.115471344;8.713979187;2.698288879
27.76468892;-3.054248657;8.879983978;2.673440552
27.77976492;-2.952759705;8.869954834;2.59530304
27.79484092;-2.956052856;8.907227325;2.713706818
27.80991592;-2.965632935;9.009015656;2.708617401
27.82499192;-3.002306671;8.894803162;2.656825104
27.84006792;-2.912942505;8.816066895;2.622097321
27.85514392;-2.846480713;8.83881958;2.617606659
27.87021992;-2.934198303;8.951385498;2.739303589
27.88529592;-2.848276978;9.20391037;2.704426117
27.90037192;-2.762655029;9.159003754;2.724185028
27.91544692;-2.740950165;9.084758148;2.637964325
27.93052292;-2.7789711;8.839568024;2.555785217
27.94559892;-2.816243591;8.683143311;2.446362762
27.96067492;-2.800226898;8.729097748;2.507735138
27.97575092;-2.899021454;8.823551331;2.524350586
27.99082692;-3.011587372;8.965007172;2.567011871
28.00590292;-2.812351685;9.075627136;2.536175995
28.02097792;-2.62329483;9.067094879;2.520159302
28.03605392;-2.693199463;9.138047333;2.667153625
28.05112992;-2.957549744;9.20855072;2.654280396
28.06620592;-2.848276978;9.117539978;2.396217041
28.08128192;-2.448308716;9.176816711;2.349364471
28.0963585;-2.398761749;9.187594299;2.472707977
28.1114345;-2.560425568;9.129365387;2.428549805
28.1265095;-2.625989227;9.067244568;2.339485016
28.1415855;-2.609822845;9.012308807;2.279459839
28.1566615;-2.565215607;9.08221344;2.327659607
28.1717375;-2.777623901;9.317823486;2.373314667
28.1868135;-2.76026001;9.582473145;2.465971985
28.2018895;-2.767744446;9.619446259;2.473456421
28.2169655;-2.6104216;9.626930695;2.357297974
28.2320415;-2.541864166;9.404792633;2.333946533
28.2471165;-2.516566772;9.37350769;2.334096222
28.2621925;-2.693648529;9.372310181;2.369722137
28.2772685;-2.69589386;9.396410065;2.227068787
28.2923445;-2.551444244;9.341474304;2.224973145
28.3074205;-2.571352844;9.375004578;2.29802124
28.3224965;-2.745740204;9.533524933;2.357148285
28.3375725;-2.965932312;9.642348633;2.29098587
28.3526475;-2.567460938;9.594597931;2.072889404
28.3677235;-2.309098206;9.242230682;2.038910065
28.3827995;-2.366728363;9.17352356;2.191293182
28.3978755;-2.649789734;9.206455078;2.151176605
28.4129515;-2.606080627;9.196875;2.031425629
28.4280275;-2.540816345;9.292675781;2.058818665
28.4431035;-2.558479614;9.440119171;2.057621155
28.4581795;-2.637215881;9.295669556;2.037413177
28.4732545;-2.436483307;9.259145508;2.086062012
28.4883305;-2.44202179;8.923244019;1.996398468
28.5034065;-2.335293732;8.724457397;1.873953094
28.5184825;-2.396217041;8.607550507;2.004930725
28.5335585;-2.572550354;8.785380707;1.92364975
28.5486345;-2.559976501;8.964707794;1.953737183
28.5637105;-2.364483032;9.25300827;1.91661438
28.5787855;-2.444716187;9.263636169;2.096091156
28.5938615;-2.514770508;9.424850922;2.036515045
28.6089375;-2.539319458;9.397757263;2.052531738
28.6240135;-2.436632996;9.438173218;1.953437805
28.6390895;-2.364333344;9.369316406;2.104773102
28.6541655;-2.415377197;9.398056641;2.104623413
28.6692415;-2.34247879;9.481882324;2.188748474
28.6843165;-2.47944397;9.244176636;1.964963837
28.6993925;-2.439327393;8.809929657;2.038610687
28.7144685;-2.320175171;8.728049927;1.795366516
28.7295445;-2.502945099;8.662486267;2.081870728
28.7446205;-2.645299072;9.14418457;2.039808197
28.7596965;-2.801873474;9.531129913;2.282603302
28.7747725;-2.566862183;9.738448792;1.961970062
28.7898485;-2.495161285;9.637109528;2.130220184
28.8049235;-2.371219025;9.673633575;2.073787537
28.8199995;-2.461930389;9.569599915;2.056423645
28.8350755;-2.428699493;9.500294037;1.947749634
28.8501515;-2.321372681;9.211544495;1.951791229
28.8652275;-2.341281281;8.978329468;1.857337646
28.8803035;-2.377356262;9.034911804;2.123484192
28.8953795;-2.54725296;9.341025238;2.10147995
28.9104545;-2.700384521;9.474846954;2.226769409
28.9255305;-2.561623077;9.482930145;2.097887421
28.9406065;-2.447560272;9.288035431;2.089654541
28.9556825;-2.40804245;9.24372757;2.106569366
28.9707585;-2.499202881;9.464219055;2.291135559
28.9858345;-2.515219574;9.824819183;2.179168396
29.0009105;-2.418670349;9.748477936;2.170636139
29.0159865;-2.218686218;9.542805634;2.046693878
29.0310615;-2.340083771;9.342522125;2.149679718
29.0461375;-2.436333618;9.397607574;1.976938934
29.0612135;-2.396666107;9.343270569;2.118544464
29.0762895;-2.408790894;9.471254425;1.972597961
29.091368;-2.433639221;9.307944031;2.05582489
29.106444;-2.353555756;9.269324341;1.933978271
29.12152;-2.524200897;9.146280212;2.175725555
29.136595;-2.535128174;9.357341309;1.951491852
29.151671;-2.812651062;9.293573914;2.104174347
29.166747;-2.600093079;9.492210846;1.941313019
29.181823;-2.488125916;9.297316132;2.015858002
29.196899;-2.243384857;9.311686249;1.918859711
29.211975;-2.433339844;9.044641571;2.045646057
29.227051;-2.309846649;9.011410675;1.899699554
29.242127;-2.357597351;8.887019348;1.817221069
29.257202;-2.298470306;8.989556122;1.944606171
29.272278;-2.522404633;9.323511658;2.102827148
29.287354;-2.556383972;9.608668671;2.076481934
29.30243;-2.436483307;9.521849213;1.958826599
29.317506;-2.132315826;9.187294922;1.974394226
29.332582;-2.194586334;8.930429077;1.842069397
29.347658;-2.424208832;8.930578766;1.957180023
29.362734;-2.406096497;9.32680481;1.970951385
29.377809;-2.436333618;9.486971741;2.057321777
29.392885;-2.419867859;9.642498322;2.066153412
29.407961;-2.386786652;9.513466644;2.045945435
29.423037;-2.464774475;9.38413559;2.047891388
29.438113;-2.495610352;9.176667023;1.952389984
29.453189;-2.212548981;8.99674118;1.769021301
29.468265;-2.366878052;8.864865417;1.856738892
29.48334;-2.282902679;9.151968384;1.899849243
29.498416;-2.311044159;9.436077576;1.938768311
29.513492;-2.343975677;9.762698364;2.148781586
29.528568;-2.365231476;9.99022522;2.099833374
29.543644;-2.352058868;9.756710815;2.0079245
29.55872;-2.337089996;9.654623108;2.004032593
29.573796;-2.29682373;9.511071625;2.010469208
29.588871;-2.325414276;9.429191895;1.932481384
29.603947;-2.36118988;9.462123413;1.947749634
29.619023;-2.296374664;9.448202362;1.925895081
29.634099;-2.495909729;9.220825195;1.902094574
29.649175;-2.466720428;9.287436676;1.915865936
29.664251;-2.473007355;9.377848663;1.869312744
29.679327;-2.440075836;9.53621933;1.963466949
29.694403;-2.550695801;9.655670929;2.061063995
29.709478;-2.355202332;9.543703766;1.99026123
29.724554;-2.220183105;9.479038239;1.920506287
29.73963;-2.271825714;9.356592865;1.94355835
29.754706;-2.32496521;9.441616058;1.930236053
29.769782;-2.528242493;9.539213104;1.979184265
29.784858;-2.307751007;9.517059174;1.916764069
29.799934;-2.251767426;9.367071075;1.959724731
29.815009;-2.249372406;9.288334808;1.957030334
29.830085;-2.323468323;9.300309906;1.98442337
29.845161;-2.314636688;9.276808777;2.021546173
29.860237;-2.307152252;9.275012512;1.966760101
29.875313;-2.331252136;9.174870758;2.01136734
29.890389;-2.221530304;9.259444885;1.974693604
29.905465;-2.332449646;9.369466095;2.13545929
29.920541;-2.240540771;9.569300537;2.023342438
29.935616;-2.325414276;9.535620575;2.117197266
29.950692;-2.241738281;9.539512482;2.036515045
29.965768;-2.234702911;9.370663605;1.937570801
29.980844;-2.203867035;9.306596832;2.001487885
29.99592;-2.160457306;9.38638092;1.967508545
30.010996;-2.34247879;9.368268585;1.985321503
30.026072;-2.192640381;9.365873566;1.984872437
30.041147;-2.27227478;9.36766983;1.995949402
30.056223;-2.337239685;9.337732086;2.039359131
30.071299;-2.357148285;9.512718201;2.085912323
30.086375;-2.477647705;9.613907776;2.083517303
30.10144804;-2.294728088;9.565258942;2.004631348
30.11652404;-2.24892334;9.486522675;2.029779053
30.13160004;-2.181413727;9.38054306;1.997745667
30.14667604;-2.191442871;9.317973175;1.975292358
30.16175104;-2.278412018;9.249415741;1.952240295
30.17682704;-2.279010773;9.171278229;1.926344147
30.19190304;-2.30041626;9.236991577;1.893562317
30.20697904;-2.251018982;9.390871582;1.957329712
30.22205504;-2.33903595;9.612859955;2.102228394
30.23713104;-2.281405792;9.69414093;2.073937225
30.25220704;-2.169438629;9.578880615;2.018552399
30.26728204;-2.186802521;9.427545319;1.947150879
30.28235804;-2.098486176;9.310039673;1.885778503
30.29743404;-2.189347229;9.342971191;1.873054962
30.31251004;-2.137854309;9.410031738;1.803449707
30.32758604;-2.098037109;9.418264618;1.830094299
30.34266204;-2.14713501;9.39581131;1.880988464
30.35773804;-2.085612946;9.379495239;1.851499786
30.37281404;-2.097288666;9.367819519;1.924098816
30.38788904;-2.066752167;9.304800568;1.908680878
30.40296504;-1.986069946;9.163195038;1.918560333
30.41804104;-2.005978546;9.196575623;1.981429596
30.43311704;-2.062411194;9.251511383;1.852996674
30.44819304;-2.110311584;9.390272827;2.006277924
30.46326904;-2.126927032;9.679621124;2.002086639
30.47834504;-2.109563141;9.839488678;2.026186523
30.49342004;-2.039957886;9.877958679;2.104922791
30.50849604;-2.109862518;9.724976807;2.002535706
30.52357204;-1.96107193;9.554032288;2.004182281
30.53864804;-1.982627106;9.320817261;1.906585236
30.55372404;-1.983525238;9.323960724;1.919458466
30.56880004;-2.084265747;9.350305939;2.023941193
30.58387604;-2.08740921;9.358239441;1.974693604
30.59895204;-1.994602203;9.322463837;1.94700119
30.61402704;-1.950294342;9.243428192;1.967508545
30.62910304;-2.053280182;9.293274536;1.976489868
30.64417904;-2.150727539;9.374106445;2.043101349
30.65925504;-2.072739716;9.56660614;1.962419128
30.67433104;-2.025887146;9.626631317;1.953138428
30.68940704;-1.92484726;9.6613591;2.011067963
30.70448304;-2.010319519;9.690847778;2.023342438
30.71955804;-1.987117767;9.621691589;2.021396484
30.73463404;-1.969903564;9.464219055;1.880240021
30.74971004;-2.027533722;9.29162796;1.828447723
30.76478604;-2.039808197;9.242080994;1.916015625
30.77986204;-2.150278473;9.314081268;2.045795746
30.79493804;-2.118095398;9.396559753;2.027234344
30.81001404;-2.168989563;9.282047882;2.165546722
30.82509004;-2.246079254;9.263935547;2.160606995
30.84016504;-2.284399567;9.239236908;2.278711395
30.85524104;-2.204166412;9.313781891;2.247276764
30.87031704;-2.197131042;9.26468399;2.174827423
30.88539304;-2.082918549;9.144334259;2.229463806
30.90046904;-2.107467499;9.134454803;2.128723297
30.91554504;-2.22437439;9.230405273;2.098186798
30.93062104;-2.179467773;9.387428741;2.177970886
30.94569704;-2.258503418;9.546547852;2.152224426
30.96077204;-2.270927582;9.605674896;2.230661316
30.97584804;-2.144889679;9.559720459;2.381846924
30.99092404;-2.228415985;9.459429016;2.406246185
31.00600004;-2.257904663;9.27875473;2.375110931
31.02107604;-2.260898438;9.097930756;2.324216766
31.03615204;-2.383643188;9.013506317;2.225721588
31.05122804;-2.346520386;9.004225616;2.262245636
31.06630304;-2.450254669;9.204808502;2.344724121
31.08137904;-2.54381012;9.535171509;2.353705444
31.09645504;-2.395468597;9.62393692;2.303709412
31.11153104;-2.367476807;9.581724701;2.343376923
31.12660704;-2.368824005;9.607770538;2.344275055
31.14168304;-2.256707153;9.548643494;2.312541046
31.15675904;-2.333497467;9.467811584;2.345622253
31.17183504;-2.253414001;9.415869598;2.286794586
31.18691004;-2.165097656;9.290729828;2.253114624
31.20198604;-2.382745056;9.287885742;2.343227234
31.21706204;-2.489173737;9.423204346;2.355501709
31.23213804;-2.492616577;9.446256409;2.334245911
31.24721404;-2.560724945;9.435029755;2.346221008
31.26229004;-2.442470856;9.4145224;2.239193573
31.27736604;-2.362686768;9.284442902;2.310295715
31.29244204;-2.46657074;9.327403564;2.37990097
31.30751704;-2.462379456;9.410331116;2.278711395
31.32259304;-2.368524628;9.338181152;2.213896179
31.33766904;-2.465822296;9.330696716;2.22781723
31.35274504;-2.422861633;9.439221039;2.197729797
31.36782104;-2.333497467;9.448801117;2.198777618
31.38289704;-2.3237677;9.375753021;2.191143494
31.39797304;-2.209704895;9.2459729;2.079924774
31.41304804;-2.177372131;9.088949432;2.079176331
31.42812404;-2.255509644;9.130712585;2.143692169
31.44320004;-2.367177429;9.310189362;2.160157928
31.45827604;-2.3436763;9.464967499;2.144141235
31.47335204;-2.348017273;9.536069641;2.121538239
31.48842804;-2.293680267;9.44730423;2.068997498
31.50350404;-2.192640381;9.26243866;1.947450256
31.51858004;-2.094893646;9.137448578;1.919907532
31.53365504;-2.032623138;9.120683441;1.890718231
31.54873104;-2.063608704;9.116342468;1.858385468
31.56380704;-2.142943726;9.14074173;1.931134186
31.57888304;-2.153272247;9.273515625;1.950593719
31.59395904;-2.1857547;9.458530884;2.017354889
31.60903504;-2.249971161;9.606872406;2.002535706
31.62411104;-2.214644623;9.676178284;1.975442047
31.63918704;-2.088007965;9.681118011;1.861828308
31.65426204;-1.950144653;9.630822601;1.758543091
31.66933804;-1.99505127;9.597442017;1.758842468
31.68441404;-2.039059753;9.628277893;1.729503479
31.69949004;-1.932631073;9.642198944;1.651665344
31.71456604;-1.989812164;9.618847504;1.734592896
31.72964204;-2.082020416;9.599837036;1.765428772
31.74471804;-1.989063721;9.471104736;1.686692505
31.75979404;-2.035616913;9.36063446;1.703008575
31.77487004;-2.204914856;9.493258667;1.728904724
31.78994504;-2.16000824;9.672735443;1.61349472
31.80502104;-2.041454773;9.810149689;1.665287018
31.82009704;-2.070195007;9.860145721;1.766177216
31.83517304;-2.026336212;9.850865021;1.672322388
31.85024904;-1.951192474;9.727820892;1.645079041
31.86532504;-1.943857727;9.651629333;1.638492737
31.88040104;-2.033072205;9.653575287;1.634750519
31.89547704;-1.909279633;9.721983032;1.582658844
31.91055204;-1.930984497;9.694290619;1.652563477
31.92562804;-1.988464966;9.637558594;1.648372192
31.94070404;-1.939816132;9.565109253;1.591789856
31.95578004;-1.994452515;9.536069641;1.582060089
31.97085604;-2.084864502;9.556876373;1.625170441
31.98593204;-2.140848083;9.619446259;1.647923126
32.00100804;-1.987267456;9.671088867;1.602866821
32.01608404;-2.038161621;9.584419098;1.619332581
32.03115904;-2.122885437;9.465566254;1.634750519
32.04623504;-2.031425629;9.488618317;1.519041138
32.06131104;-2.03007843;9.558672638;1.546583862
32.07638704;-2.084116058;9.631421356;1.524130554
32.09146304;-2.085014191;9.658664703;1.591939545
32.1065385;-1.908231812;9.706265717;1.466650085
32.1216145;-2.003882904;9.573491821;1.493144989
32.1366905;-1.956730957;9.416468353;1.39000946
32.1517665;-1.855691071;9.336983643;1.48595993
32.1668415;-1.848506012;9.430988159;1.493743744
32.1819175;-1.964065704;9.557175751;1.605261841
32.1969935;-2.012415161;9.569749603;1.600172424
32.2120695;-1.930086365;9.721384277;1.633852386
32.2271455;-2.067799988;9.783654785;1.604513397
32.2422215;-1.980531464;9.785151672;1.483564911
32.2572975;-1.982327728;9.677675171;1.603315887
32.2723735;-1.817670135;9.672136688;1.462758179
32.2874495;-1.930834808;9.521549835;1.532064056
32.3025245;-1.733245697;9.450298004;1.375339966
32.3176005;-1.86512146;9.326655121;1.586700439
32.3326765;-1.911225586;9.463470612;1.465452576
32.3477525;-2.143243103;9.548194427;1.593735809
32.3628285;-1.963616638;9.69997879;1.384920044
32.3779045;-2.051633606;9.77602066;1.655108185
32.3929805;-2.038610687;9.980944519;1.549577637
32.4080565;-2.015259247;9.995763702;1.651964722
32.4231325;-1.835183716;9.922565918;1.464704132
32.4382075;-1.797911224;9.770631866;1.588796082
32.4532835;-1.964514771;9.608369293;1.44509491
32.4683595;-1.840722198;9.584419098;1.484013977
32.4834355;-1.938169556;9.500294037;1.382674713
32.4985115;-1.87335434;9.501192169;1.452579346
32.5135875;-2.10267746;9.480385437;1.506467285
32.5286635;-2.091151428;9.614805908;1.499581604
32.5437395;-2.138752441;9.683962097;1.451082458
32.5588155;-1.943109283;9.782606964;1.434766388
32.5738905;-1.996847534;9.775721283;1.506467285
32.5889665;-1.901645508;9.902657318;1.487307129
32.6040425;-1.855391693;9.898316345;1.482367401
32.6191185;-1.750160522;9.8790065;1.410666504
32.6341945;-1.835183716;9.700128479;1.460961914
32.6492705;-1.887425079;9.65671875;1.475930786
32.6643465;-1.935026093;9.704619141;1.518143005
32.6794225;-1.946103058;9.620793457;1.439107361
32.6944985;-1.887874146;9.443412323;1.459315338
32.7095745;-1.939816132;9.353000336;1.400936737
32.7246495;-2.052531738;9.378447418;1.467847595
32.7397255;-2.019749908;9.525741119;1.370998993
32.7548015;-1.884131927;9.748627625;1.443448334
32.7698775;-1.870659943;9.904154205;1.503024445
32.7849535;-1.891766052;9.895921326;1.641785889
32.8000295;-1.873504028;9.821825409;1.635049896
32.8151055;-1.817071381;9.691446533;1.541344757
32.8301815;-1.787433014;9.555529175;1.43925705
32.8452575;-1.745071106;9.431287537;1.42638382
32.8603335;-1.85464325;9.340127106;1.497635651
32.8754085;-1.986069946;9.408385162;1.500180359
32.8904845;-2.002086639;9.55373291;1.468745728
32.9055605;-2.00672699;9.662406921;1.512305145
32.9206365;-1.972897339;9.747879181;1.615290985
32.9357125;-1.997595978;9.720635834;1.671424255
32.9507885;-1.993105316;9.698631592;1.71648056
32.9658645;-1.884431305;9.677525482;1.634451141
32.9809405;-1.831291809;9.589658203;1.525178375
32.9960165;-1.797162781;9.566905518;1.520687714
33.0110925;-1.889221344;9.504185944;1.461111603
33.0261675;-1.936672668;9.488019562;1.486558685
33.0412435;-2.022144928;9.537117462;1.502276001
33.0563195;-2.032174072;9.638606415;1.541943512
33.0713955;-2.075284424;9.746981049;1.64986908
33.0864715;-2.042652283;9.750573578;1.746567993
33.101548;-2.120340729;9.665251007;1.845811615
33.116624;-2.117796021;9.612560577;1.80898819
33.1317;-2.100432129;9.487271118;1.75869278
33.146776;-2.078577576;9.430988159;1.697170715
33.161852;-2.125430145;9.350305939;1.728904724
33.176927;-2.100581818;9.373956757;1.659449158
33.192003;-2.127675476;9.407187653;1.720971222
33.207079;-2.142644348;9.491911469;1.770667877
33.222155;-2.177372131;9.558822327;1.889820099
33.237231;-2.215093689;9.590107269;2.032922516
33.252307;-2.302511902;9.559421082;2.175575867
33.267383;-2.302960968;9.446555786;2.184257813
33.282459;-2.32960556;9.27755722;2.250719604
33.297535;-2.435435486;9.13490387;2.353256378
33.312611;-2.519261169;8.990603943;2.335892487
33.327686;-2.528691559;8.891809387;2.306104431
33.342762;-2.528242493;8.969048767;2.364033966
33.357838;-2.618355103;9.038803711;2.419867859
33.372914;-2.614912262;9.186845856;2.446213074
33.38799;-2.558030548;9.274563446;2.539319458
33.403066;-2.580633545;9.258097687;2.659220123
33.418142;-2.681523743;9.241931305;2.750081177
33.433218;-2.706821136;9.192833405;2.744542694
33.448294;-2.647544403;9.088350677;2.740201721
33.46337;-2.581831055;8.96874939;2.694846039
33.478446;-2.635120239;8.868607635;2.754122772
33.493522;-2.703527985;8.850345612;2.757715302
33.508597;-2.744243317;8.844208374;2.718197479
33.523673;-2.742447052;8.827742615;2.725382538
33.538749;-2.79528717;8.913065186;2.78944931
33.553825;-2.885848846;9.019194489;2.855462036
33.568901;-2.870730286;9.11963562;2.939886475
33.583977;-2.824326782;9.143436127;2.957250366
33.599053;-2.780917053;9.10676239;2.959944763
33.614129;-2.788551178;9.028475189;2.938539276
33.629205;-2.736908569;8.95812149;2.893932037
33.644281;-2.749033356;8.928632812;2.861299896
33.659357;-2.788251801;9.027127991;2.833158417
33.674432;-2.804867249;9.136999512;2.806813202
33.689508;-2.825823669;9.191635895;2.843187561
33.704584;-2.770588531;9.201964417;2.859054565
33.71966;-2.824027405;9.139993286;2.897674255
33.734736;-2.797981567;9.087901611;2.903212738
33.749812;-2.759361877;9.016949158;2.889291687
33.764888;-2.80935791;8.937314758;2.901416473
33.779964;-2.816992035;8.940907288;2.901117096
33.79504;-2.800077209;8.916657715;2.855312347
33.810116;-2.814746704;8.891210632;2.88899231
33.825192;-2.850222931;8.931027832;2.871329041
33.840268;-2.859054565;8.96171402;2.806214447
33.855343;-2.854414215;8.944799194;2.810256042
33.870419;-2.861150208;8.943901062;2.882106628
33.885495;-2.891087952;8.949439545;2.832409973
33.900571;-2.850971375;8.975635071;2.892884216
33.915647;-2.883603516;8.916807404;2.93105484
33.930723;-2.886896667;8.851393433;2.978506165
33.945799;-2.915487213;8.757239227;3.025209045
33.960875;-2.960393829;8.726403351;3.059338074
33.975951;-3.023263092;8.714577942;3.120860138
33.991027;-2.997666321;8.720565491;3.106490021
34.006103;-2.987487488;8.725205841;3.09256897
34.021179;-3.004102936;8.804690552;3.114273834
34.036254;-3.015030212;8.874295807;3.163521423
34.05133;-3.015628967;8.945996704;3.172203369
34.066406;-3.01293457;9.019493866;3.175346832
34.081482;-2.96503418;9.022337952;3.145708466
34.096558;-2.928210754;8.928483124;3.152145081
34.111634;-2.882555695;8.878487091;3.119962006
34.12671;-2.870430908;8.792565765;3.057841187
34.141786;-2.900518341;8.729546814;3.083288269
34.156862;-2.898722076;8.690927124;3.063978424
34.171938;-2.897973633;8.663683777;3.069516907
34.187014;-2.956202545;8.680748291;3.116219788
34.20209;-3.035537567;8.763526154;3.162323914
34.217166;-3.037333832;8.861572266;3.184028778
34.232242;-3.005001068;8.89495285;3.205284576
34.247318;-3.081941071;8.910969543;3.222798157
34.262393;-3.103196869;8.915460205;3.236270142
34.277469;-3.051853638;8.866661682;3.221151581
34.292545;-3.038381653;8.799750824;3.247796173
34.307621;-3.089425507;8.729247437;3.253484344
34.322697;-3.07146286;8.658444672;3.247347107
34.337773;-3.032992859;8.613837433;3.268453217
34.352849;-3.061433716;8.567134552;3.314407654
34.367925;-3.146456909;8.523874512;3.379821625
34.383001;-3.134930878;8.509654083;3.413651276
34.398077;-3.14166687;8.508606262;3.492088165
34.413153;-3.153791656;8.569230194;3.555705872
34.428229;-3.15334259;8.633147278;3.588188324
34.443305;-3.155138855;8.650810547;3.623215485
34.458381;-3.133134613;8.63988327;3.642824707
34.473456;-3.146157532;8.571774902;3.626957703
34.488532;-3.153043213;8.581055603;3.611090698
34.503608;-3.176095276;8.605754242;3.61677887
34.518684;-3.207829285;8.603059845;3.623365173
34.53376;-3.235821075;8.556656342;3.630101166
34.548836;-3.27384201;8.475674744;3.637286224
34.563912;-3.288062439;8.423732758;3.656596069
34.578988;-3.385809174;8.37433548;3.676504669
34.594064;-3.457510071;8.364755402;3.759731598
34.60914;-3.451522522;8.414002991;3.760779419
34.624216;-3.43655365;8.432115326;3.803889771
34.639292;-3.454216919;8.476872253;3.843856659
34.654368;-3.405568085;8.416996765;3.842808838
34.669444;-3.391647034;8.37074295;3.837120667
34.68452;-3.391497345;8.314759369;3.865561523
34.699596;-3.362308044;8.294551392;3.900738373
34.714671;-3.43071579;8.325836334;3.939058685
34.729747;-3.430865479;8.449628906;3.953428802
34.744823;-3.364852753;8.462651825;3.934418335
34.759899;-3.381917267;8.44453949;3.954177246
34.774975;-3.44942688;8.402626648;3.913461914
34.790051;-3.492237854;8.434061279;3.912264404
34.805127;-3.515439606;8.440198517;3.900588684
34.820203;-3.494632874;8.483907623;3.934867401
34.835279;-3.469634857;8.512797546;3.92334137
34.850355;-3.369642792;8.475075989;3.917204132
34.865431;-3.3522789;8.366401978;3.920347595
34.880507;-3.375630341;8.28886322;3.930975494
34.895583;-3.389551392;8.258027344;3.92798172
34.910659;-3.391647034;8.273445282;3.951782227
34.925735;-3.413052521;8.313112793;4.057761841
34.940811;-3.377576294;8.279283142;4.03560791
34.955887;-3.32189209;8.167615356;3.996090088
34.970963;-3.355422363;8.020471344;3.964805145
34.986038;-3.358715515;7.939938812;3.894750824
35.001114;-3.419788513;7.925419006;3.885919189
35.01619;-3.565735016;8.17420166;3.97483429
35.031266;-3.548221436;8.439749451;3.979624329
35.046342;-3.492537231;8.519982605;4.022435303
35.061418;-3.462898865;8.549920349;4.091591492
35.076494;-3.609444122;8.457712097;4.039948883
35.09157;-3.587739258;8.388256531;3.958218842
35.1066515;-3.535048828;8.365653534;4.011957092
35.1217275;-3.452570343;8.334967346;3.995641022
35.1368035;-3.407064972;8.202043762;3.969744873
35.1518795;-3.331472168;8.081993408;3.934717712
35.1669555;-3.47981369;7.957003326;3.978576508
35.1820315;-3.626808014;7.994275818;4.039799194
35.1971075;-3.71033432;8.197104034;4.119283905
35.2121835;-3.641627197;8.488847351;4.217330017
35.2272595;-3.521726532;8.572673035;4.289030914
35.2423355;-3.407663727;8.420738983;4.273313599
35.2574115;-3.49852478;8.138575745;4.231999512
35.2724875;-3.579506378;8.036038971;4.114344177
35.2875635;-3.565735016;8.178243256;4.041595459
35.3026385;-3.451672211;8.343499603;3.962859192
35.3177145;-3.431164856;8.377179565;4.064048767
35.3327905;-3.560046844;8.348738708;4.036506042
35.3478665;-3.48804657;8.322094116;3.95133316
35.3629425;-3.74655899;8.311316528;4.175117798
35.3780185;-4.020639038;8.710236969;4.225113831
35.3930945;-3.628005524;8.726103973;4.05671402
35.4081705;-3.414998474;8.317304077;4.236041107
35.4232465;-3.494932251;7.978259125;4.251608734
35.4383225;-3.659440155;7.62544281;4.173620911
35.4533985;-3.608096924;7.351961517;4.148772583
35.4684745;-3.678001556;7.233108673;4.239633636
35.4835505;-3.440595245;7.108867035;3.989054718
35.4986265;-3.33596283;6.873256989;3.992647247
35.5137025;-3.628304901;7.144942017;4.434977417
35.5287785;-4.292024689;7.81150589;4.614903259
35.5438545;-4.375550995;8.437055054;4.649631042
35.5589305;-4.017196198;9.059311066;4.683161316
35.5740065;-3.877087555;9.226513367;4.607119446
35.5890825;-3.892505493;8.804540863;4.528383179
35.6041585;-3.872447205;8.483907623;4.264332275
35.6192345;-3.790417786;8.368647308;3.99579071
35.6343105;-3.53250412;8.361611938;3.672463074
35.6493865;-2.958298187;8.39768692;3.487447815
35.6644625;-3.41904007;8.252339172;4.050127716
35.6795385;-3.979324951;8.535400543;4.049978027
35.6946135;-3.672762451;8.327782288;3.719315643
35.7096895;-3.570974121;7.972121887;3.802542572
35.7247655;-3.438050537;7.853867798;3.707789612
35.7398415;-3.46230011;7.65238678;3.721560974
35.7549175;-3.780388641;7.944279785;3.979774017
35.7699935;-3.989354095;8.737929382;4.198169861
35.7850695;-3.772155762;9.158105621;3.927382965
35.8001455;-3.467838593;9.22726181;3.943249969
35.8152215;-3.619922333;9.298363953;4.282743988
35.8302975;-3.972738647;9.290879517;4.098477173
35.8453735;-3.700903931;9.20391037;3.905977478
35.8604495;-3.187022552;8.884774017;3.505709839
35.8755255;-2.972967682;8.177644501;3.356769562
35.8906015;-3.063379669;7.801925812;3.341201935
35.9056775;-3.396137695;7.744445343;3.365750885
35.9207535;-3.602109375;7.964487762;3.462898865
35.9358295;-3.62141922;8.284821625;3.584146729
35.9509055;-3.664828949;8.53809494;3.90463028
35.9659815;-3.866609344;8.692424011;4.065845032
35.9810575;-3.92917923;8.603359222;4.070485382
35.9961335;-3.665577393;8.471483459;3.971092072
36.0112095;-3.581152954;8.229586487;4.007017365
36.0262855;-3.612587585;8.187673645;3.9654039
36.0413615;-3.616030426;8.214617615;3.786076813
36.0564375;-3.415297852;8.24320816;3.731290741
36.0715135;-3.410058746;8.30877182;3.690575409
36.0865895;-3.447780304;8.341254272;3.622317352
36.10166325;-3.460503845;8.327033844;3.52307373
36.11673925;-3.396137695;8.254883881;3.537743225
36.13181525;-3.415896606;8.208330688;3.611539764
36.14689125;-3.436254272;8.267457733;3.738625488
36.16196625;-3.421734467;8.427774353;3.76062973
36.17704225;-3.381468201;8.48196167;3.878434753
36.19211825;-3.388503571;8.522527313;3.863465881
36.20719425;-3.497476959;8.4749263;3.916455688
36.22227025;-3.565136261;8.502768402;3.800746307
36.23734625;-3.50436264;8.342152405;3.665427704
36.25242225;-3.327879639;8.165669403;3.573369141
36.26749825;-3.450175323;8.111931152;3.657943268
36.28257425;-3.5208284;8.288414154;3.668720856
36.29765025;-3.448828125;8.346343689;3.609294434
36.31272625;-3.340004425;8.318950653;3.637136536
36.32780225;-3.452420654;8.260721741;3.666475525
36.34287825;-3.63189743;8.296946411;3.75718689
36.35795425;-3.642225952;8.413254547;3.730691986
36.37303025;-3.497926025;8.522677002;3.742517395
36.38810625;-3.563489685;8.607251129;3.764521637
36.40318225;-3.689527588;8.756490784;3.790866852
36.41825825;-3.718866577;8.814719696;3.717818756
36.43333425;-3.582500153;8.76397522;3.606300659
36.44841025;-3.541485443;8.730444946;3.545527039
36.46348625;-3.498824158;8.711733856;3.531905365
36.47856225;-3.467539215;8.864116974;3.501518555
36.49363825;-3.414250031;8.860075378;3.460503845
36.50871425;-3.468736725;8.834029541;3.489693146
36.52379025;-3.536246338;8.799301758;3.411405945
36.53886625;-3.506907349;8.76038269;3.337609406
36.55394225;-3.486399994;8.667425995;3.285068665
36.56901825;-3.42368042;8.610244904;3.321143646
36.58409425;-3.397784271;8.634943542;3.263663177
36.59917025;-3.51379303;8.669970703;3.335214386
36.61424625;-3.487597504;8.721912689;3.303929443
36.62932225;-3.375031586;8.736432495;3.403023376
36.64439825;-3.339255981;8.913963318;3.450774078
36.65947425;-3.398083649;8.929680634;3.548969879
36.67455025;-3.221001892;8.844807129;3.520379333
36.68962625;-3.189267883;8.624764709;3.581302643
36.70470225;-3.247047729;8.42927124;3.420087891
36.71977725;-3.331472168;8.124055939;3.35467392
36.73485325;-3.067271576;7.992180176;3.244952087
36.74992925;-3.111579437;7.782915344;3.275338898
36.76500525;-3.349584503;7.70971756;3.295546875
36.78008125;-3.344644775;7.800279236;3.23297699
36.79515725;-3.265309753;8.016429749;3.219505005
36.81023325;-3.558100891;8.399932251;3.328179016
36.82530925;-3.350782013;8.959917755;3.318898315
36.84038525;-3.67291214;9.266779633;3.629053345
36.85546125;-4.132306824;9.654623108;3.761228485
36.87053725;-3.51259552;9.83335144;3.509302368
36.88561325;-3.013832703;9.622140656;3.428470459
36.90068925;-3.034639435;9.153465271;3.506308594
36.91576525;-2.868784332;8.295000458;3.304079132
36.93084125;-2.566263428;7.439978485;3.099754028
36.94591725;-2.775378571;6.857240295;3.003204803
36.96099325;-3.264860687;6.592440948;3.096311188
36.97606925;-3.316353607;6.857090607;2.944227448
36.99114525;-3.125799866;7.166646881;3.033441925
37.00622125;-3.557202759;7.551646271;3.520229645
37.02129725;-4.130211182;8.105943604;3.617677002
37.03637325;-3.952830048;8.298143921;3.410208435
37.05144925;-3.709585876;8.260871429;3.540737
37.06652525;-3.819008331;8.578510895;3.612288208
37.08160125;-3.716621246;8.702602844;3.373684387
37.09667725;-3.173700256;8.571625214;3.136128387
37.11175038;-2.694995728;8.52641922;3.064128113
37.12682637;-2.823578339;8.412805481;2.86668869
37.14190238;-3.403921509;8.578810272;2.946921844
37.15697838;-4.061803436;9.091943207;2.942880249
37.17205437;-4.236340485;9.373956757;2.751578064
37.18713038;-4.045187988;9.441765747;2.786754913
37.20220638;-3.962410126;8.793613586;2.982098694
37.21728237;-3.884272614;8.226742401;3.070864105
37.23235838;-3.742367706;7.663763123;2.726130981
37.24743438;-3.859573975;7.165000305;3.012485504
37.26251038;-4.155059509;7.382198639;3.036735077
37.27758638;-4.423002319;8.094267883;3.04107605
37.29266237;-4.536765747;9.21094574;3.193758545
37.30773838;-4.623435516;9.738448792;3.313808899
37.32281438;-4.463567963;9.482630768;3.234623566
37.33789037;-3.782484283;8.94180542;2.6210495
37.35296638;-3.492387543;8.067024536;2.482138367
37.36804238;-4.078418884;8.311915283;2.595153351
37.38311738;-4.521048431;8.792715454;2.282303925
37.39819338;-3.842060394;8.998387756;1.97155014
37.41326937;-3.520229645;8.74406662;2.117945709
37.42834538;-3.56289093;8.498128052;2.663261719
37.44342138;-4.017495575;8.587492218;2.588117981
37.45849737;-4.397704926;8.696764984;2.869832153
37.47357338;-4.650229797;9.368567963;2.93809021
37.48864938;-4.76339447;9.613309021;2.853665771
37.50372537;-4.380041656;9.733808441;2.824326782
37.51880138;-3.85193985;9.296867065;2.994522858
37.53387737;-3.707190857;8.464747467;2.793939972
37.54895338;-3.617527313;8.058043213;2.506837006
37.56402938;-3.436403961;7.883955231;2.160457306
37.57910537;-3.58040451;7.674391022;2.258653107
37.59418138;-4.094734955;7.847131805;2.597698059
37.60925738;-4.394112396;8.284671936;2.533780975
37.62433337;-4.208049316;8.50770813;2.443818054
37.63940938;-4.070934448;8.576864319;2.764750671
37.65448538;-3.983366547;8.543034668;2.561922455
37.66956137;-3.803291016;8.17300415;2.294728088
37.68463738;-3.947441254;8.002508698;2.361788635
37.69971338;-4.206253052;8.284372559;2.336191864
37.71478937;-4.136049042;8.54048996;2.118694153
37.72986538;-4.06599472;8.738079071;2.255210266
37.74494138;-3.851640472;8.799750824;2.336191864
37.76001737;-3.979923706;8.322243805;2.163002014
37.77509338;-4.096680908;8.022417297;1.969604187
37.79016938;-4.363725586;7.97526535;1.970202942
37.80524538;-4.645888824;8.172255707;1.964963837
37.82032138;-4.653822327;8.893605652;2.175875244
37.83539737;-4.886139221;9.505533142;2.340682526
37.85047338;-4.777614899;9.872270508;2.320923615
37.86554938;-4.461622009;9.42739563;2.197879486
37.88062537;-4.317022705;8.772657166;2.272125092
37.89570138;-4.453089752;8.60485611;2.133962402
37.91077738;-4.492158508;8.350385284;1.853894806
37.92585337;-4.50009201;8.630452881;2.180814972
37.94092938;-4.547693024;8.923244019;2.137255554
37.95600538;-4.345014496;8.83762207;1.969454498
37.97108137;-4.528682556;8.719068604;2.175126801
37.98615738;-4.703069916;8.735384674;2.145189056
38.00123338;-4.851261749;8.720715179;2.086960144
38.01630937;-4.859494629;8.839118958;2.162103882
38.03138538;-4.88628891;8.975186005;2.151026917
38.04646138;-4.650678864;8.90902359;2.073937225
38.06153737;-4.510270844;8.8013974;2.059417419
38.07661338;-4.5493396;8.630901947;1.944306793
38.09168937;-4.663851471;8.429869995;1.893712006
38.10676404;-4.715344391;8.414751434;1.982926483
38.12184104;-4.735252991;8.490643616;2.06750061
38.13691604;-4.63241684;8.496930542;2.117047577
38.15199204;-4.5984375;8.505612488;2.226919098
38.16706804;-4.696932678;8.511450348;2.302661591
38.18214404;-4.620292053;8.430618439;2.261347504
38.19722004;-4.517006836;8.351882172;2.297422485
38.21229604;-4.423900452;8.477920074;2.365680542
38.22737204;-4.474195862;8.453071747;2.327958984
38.24244804;-4.491260376;8.331973572;2.278711395
38.25752404;-4.425696716;8.138575745;2.142794037
38.27260004;-4.552932129;7.795189819;2.087259521
38.28767604;-4.291276245;7.683222656;1.904190216
38.30275204;-4.346361694;7.623347168;2.031126251
38.31782804;-4.21703064;7.972570953;2.094594269
38.33290404;-4.551285553;7.939639435;2.119891663
38.34798004;-4.584666138;7.654931488;1.977088623
38.36305604;-3.906127167;7.562723236;1.534908142
38.37813204;-4.211941223;7.41947113;1.932631073
38.39320804;-5.132975922;8.473279724;2.32257019
38.40828404;-5.435796204;9.706864471;2.046544189
38.42336004;-5.786666565;9.896370392;1.98098053
38.43843604;-4.885241089;10.16461258;1.749861145
38.45351204;-4.403243408;9.743538208;1.776356049
38.46858804;-4.698878632;9.163793793;2.152224426
38.48366404;-4.922812958;8.53929245;2.220931549
38.49874004;-4.544250183;7.772287445;1.450783081
38.51381604;-4.083508301;7.2685849;1.297352142
38.52889204;-3.866160278;6.992708588;1.920356598
38.54396804;-4.763693848;7.021149445;2.771336975
38.55904404;-5.548362122;7.403005371;2.605631561
38.57412004;-5.360802155;7.553292847;2.055974579
38.58919604;-4.806804199;7.223229218;2.051034851
38.60427204;-4.54694458;7.191495209;2.302362213
38.61934804;-4.812941437;7.145840149;2.085912323
38.63442404;-5.077441406;7.119345245;2.097438354
38.64950004;-5.043013;7.525301056;1.879641266
38.66457604;-4.955594788;7.508236542;1.362616425
38.67965204;-4.84647171;7.597600708;1.24960144
38.69472804;-5.111570435;8.186775513;1.385518799
38.70980404;-5.427713013;8.776998138;1.358574829
38.72488004;-6.012995911;8.675359497;1.282832336
38.73995604;-5.655688934;8.700656891;1.025218048
38.75503204;-5.371130676;8.459358673;0.7717950439
38.77010804;-5.715115356;8.195756836;1.216220856
38.78518404;-5.915398865;8.133486328;1.292562103
38.80026004;-5.963299255;7.946824493;1.027014313
