Time (s);Gyroscope x (rad/s);Gyroscope y (rad/s);Gyroscope z (rad/s)
0.0314765;0.05596554279;0.02140549198;0.01670475863
0.0465525;0.04438680783;0.020047158;0.01762057096
0.0616275;0.03452772647;0.01096319687;0.01606975496
0.07670604167;0.022395432;0.007594299503;0.01020680461
0.09178204167;0.01476489473;0.01420107577;0.001532844268
0.1068580417;0.01665824093;0.008717535995;0.002270377707
0.1219340417;0.01615564525;0.01126972679;0.002559803892
0.1370090417;0.01837538928;0.0159057565;0.005187544972
0.1520850417;0.01614807174;0.0202937983;0.001770646777
0.1671610417;0.01438154932;0.02322088368;0.004057991784
0.1822370417;0.01648895629;0.01873930916;0.006240496412
0.1973120417;0.0208847709;0.01527693495;0.007796315476
0.2123880417;0.02778603882;0.01543166861;0.008349142969
0.2274640417;0.03002025746;0.01051124651;0.002482876647
0.2425400417;0.03174775466;0.007222741842;0.0006254436448
0.2576160417;0.02996343747;0.01033384539;-0.003958922345
0.2726910417;0.02868530527;0.01284238324;-0.007197246421
0.2877670417;0.0312561579;0.01574886963;-0.01286940835
0.3028430417;0.04349125549;0.02136254683;0.007754110266
0.3179190417;0.06510920078;0.03121491149;-0.009211556986
0.3329940417;0.0953674987;0.04736432061;-0.01877869666
0.3480700417;0.135497719;0.06940309703;-0.02810529247
0.3631460417;0.1794524938;0.07392983139;-0.03688954189
0.3782220417;0.212148115;0.09853743762;-0.05029749125
0.3932980417;0.2241874337;0.1080708578;-0.07132781297
0.4083730417;0.2173878402;0.1183296591;-0.1015067026
0.4234490417;0.1939063966;0.1284056604;-0.1394153982
0.4385250417;0.1632414311;0.1190305278;-0.1915230751
0.4536010417;0.1420881301;0.1067913845;-0.2544613183
0.4686760417;0.1414680481;0.1009442434;-0.3055568337
0.4837520417;0.156235978;0.109596014;-0.3422385454
0.4988280417;0.1795106828;0.1068841219;-0.3745629489
0.5139040417;0.2025132924;0.1165752709;-0.3936342597
0.5289790417;0.21672526;0.1096788794;-0.3674135208
0.5440550417;0.2232493609;0.09173645824;-0.313184768
0.5591310417;0.2197752595;0.08505698293;-0.2469636798
0.5742070417;0.218421936;0.06687511504;-0.1707339436
0.5892830417;0.2076800168;0.05902034044;-0.1077935994
0.6043580417;0.205971837;0.06095031276;-0.04384223372
0.6194340417;0.2053755522;0.07605282962;-0.001617551316
0.6345100417;0.2106682658;0.09766405076;0.01293713972
0.6495860417;0.2274675816;0.09789051861;0.004999173339
0.6646610417;0.2373127043;0.08172643185;-0.001619148534
0.6797370417;0.2428701967;0.07821159065;-0.01356901973
0.6948130417;0.2646780312;0.06548487395;-0.01871584356
0.7098890417;0.2932208776;0.05029575154;-0.01733399183
0.7249650417;0.2997325063;0.03876821697;-0.006314463913
0.7400400417;0.272442311;0.02660476416;0.01377482526
0.7551160417;0.2211636305;0.01000009943;0.02428011037
0.7701920417;0.1587709934;0.00645480305;0.02526456304
0.7852680417;0.1165124252;0.002139545977;0.03141539544
0.8003430417;0.07413779944;-0.004003033973;0.03369426355
0.8154190417;0.03557363153;-0.007535184734;0.01895686239
0.8304950417;0.0248244293;-0.02205814794;-0.00165141467
0.8455710417;0.02392233908;-0.02604909614;-0.01362016797
0.8606470417;-0.0005585027393;-0.03003877774;-0.02271246724
0.8757220417;-0.01850997098;-0.04131917655;-0.02682875842
0.8907980417;-0.03618552163;-0.04293060303;-0.02288508415
0.9058740417;-0.05311662331;-0.04749810696;-0.01400563307
0.9209500417;-0.08982723951;-0.03434901312;-0.009351491928
0.9360250417;-0.1258853525;-0.03876025602;0.0004001222551
0.9511010417;-0.1531140655;-0.02224428952;0.004073544871
0.9661770417;-0.1623267382;-0.01160721574;0.0150864739
0.9812530417;-0.1637262255;-0.006743484642;0.01437913813
0.9963280417;-0.1528026164;-0.01891842112;0.03057389706
1.011404042;-0.135781914;-0.02510741353;0.04896415398
1.026480042;-0.1059469655;-0.02234525234;0.07123535126
1.041556042;-0.0691761747;-0.01327852067;0.09316781163
1.056632042;-0.0300045535;-0.006152763963;0.1169972718
1.0717035;0.001777989091;-0.005421894602;0.1332432032
1.0867795;0.01508354675;-0.002569311298;0.1409261376
1.1018555;0.02425414324;-0.004827671684;0.1389759034
1.1169315;0.02416332066;-0.02062813006;0.1329840422
1.1320065;0.01706900448;-0.02950956672;0.1293756962
1.1470825;0.004154039081;-0.02830272913;0.1211189777
1.1621585;0.0007976572379;-0.02159768716;0.1091424748
1.1772345;0.01003128663;-0.01352394093;0.09579319507
1.1923105;0.0136741465;-0.006840937305;0.07254967839
1.2073855;0.02608153597;-0.00254992675;0.0495807603
1.2224615;0.04022744671;-0.01387182344;0.0290730875
1.2375375;0.04103326797;-0.02533878013;0.001645132434
1.2526135;0.03801853955;-0.0213306956;0.004643457942
1.2676885;0.03356361389;-0.005648796447;-0.005030781962
1.2827645;0.04161594808;0.01405113842;-0.01446929108
1.2978405;0.04464324936;0.02118723467;-0.03401058167
1.3129165;0.03151068836;0.03670469671;-0.05110895634
1.3279915;0.01639604568;0.05834200606;-0.07280091196
1.3430675;0.03587946668;0.05729112402;-0.08486770093
1.3581435;0.07167029381;0.05933512002;-0.0657928437
1.3732195;0.13691926;0.0457576327;-0.08158638328
1.3882955;0.1959207505;0.0180126559;-0.09122397006
1.4033705;0.238371551;0.00744416751;-0.07766661048
1.4184465;0.2521531582;0.03697225451;-0.05404711887
1.4335225;0.2237567753;0.07217142731;-0.03694632649
1.4485985;0.1842882782;0.1172152162;-0.03217029199
1.4636735;0.1502259225;0.1570779532;-0.03433890268
1.4787495;0.1202261746;0.1845298856;-0.03460742533
1.4938255;0.0770278126;0.1892464012;-0.03191010654
1.5089015;0.03316568211;0.1818151921;-0.01265866682
1.5239765;-0.006193706766;0.1605482548;0.008270316757
1.5390525;-0.03267541528;0.148972407;0.03966511413
1.5541285;-0.04241577536;0.14567855;0.06340181082
1.5692045;-0.02092008479;0.1518457532;0.07946363837
1.5842805;0.01705286466;0.1467513889;0.08374893665
1.5993555;0.05118853226;0.1507621706;0.08993014693
1.6144315;0.07269923389;0.1364989579;0.03428651392
1.6295075;0.08975819498;0.1442399025;0.07312310487
1.6445835;0.08474478871;0.1479944289;0.08216187358
1.6596585;0.02735654078;0.1656771153;0.08601246774
1.6747345;-0.03715184703;0.1880872399;0.07020729035
1.6898105;-0.05952162296;0.2263880074;0.06103438139
1.7048865;-0.03739128634;0.2058757991;0.01613960788
1.7199625;-0.006818773225;0.1664703041;-0.01452066749
1.7350375;0.01029615942;0.1305417866;-0.03123784065
1.7501135;0.02291743271;0.09569062293;-0.04679451138
1.7651895;0.04264559969;0.05373678356;-0.04319285601
1.7802655;0.01278101187;0.03706241399;-0.04215566069
1.7953405;-0.04505211487;0.02881662734;-0.004985999782
1.8104165;-0.06184885651;0.06878208369;0.04832912609
1.8254925;-0.05560853705;0.1102040932;0.1056701839
1.8405685;-0.07750009;0.1432212144;0.1106504053
1.8556445;-0.09855794907;0.2374204397;0.1493311375
1.8707195;-0.133422628;0.1891784072;0.08452250808
1.8857955;-0.09895626456;0.2158776671;0.1032922044
1.9008715;-0.1035448015;0.1455228031;0.01468626224
1.9159475;-0.0689638257;0.1334848553;-0.02922373638
1.9310225;-0.01262761559;0.05521705374;-0.06845863163
1.9460985;0.05470481887;0.05919634923;-0.04382838681
1.9611745;0.07212083787;0.03249963373;-0.06478378177
1.9762505;0.07532233;-0.04211423919;-0.06341800839
1.9913265;0.1089194566;-0.07905199379;-0.03315845504
2.0064015;0.1637616754;-0.1055019796;-0.0003051655367
2.0214775;0.2096598893;-0.08886377513;0.03580049798
2.0365535;0.235705018;-0.05156581104;0.02308629826
2.0516295;0.2484421283;0.003511040471;-0.04656290263
2.0667045;0.267914921;0.01065363828;-0.08573480695
2.081780375;0.306232363;-0.02122912556;-0.07717645168
2.096856375;0.339202255;-0.0289423354;-0.02134262025
2.111932375;0.3563491106;-0.04177125543;0.02643796988
2.127008375;0.3403978348;-0.008576551452;0.02831389941
2.142083375;0.2783514559;-0.09903991222;0.02785520256
2.157159375;0.1994736791;-0.08052548766;0.001238547266
2.172235375;0.133348003;-0.06337308139;-0.05232799053
2.187311375;0.06830880791;-0.05561422557;-0.1018859595
2.202386375;-0.001889438718;-0.04429058731;-0.1449852735
2.217462375;-0.05194902793;-0.06870347261;-0.129240334
2.232538375;-0.06671731174;-0.08861338347;-0.1086626574
2.247614375;-0.06442592293;-0.08919181675;-0.08228458464
2.262690375;-0.05755852163;-0.06762189418;-0.05142593384
2.277765375;-0.05548951775;-0.05408846587;-0.01219911221
2.292841375;-0.06554508954;-0.05166752636;0.01172330603
2.307917375;-0.06874195486;-0.05169868469;0.03398600221
2.322993375;-0.05305041745;-0.04813770205;0.05220497772
2.338068375;-0.03033815697;-0.05039764568;0.06329056621
2.353144375;-0.006820360199;-0.05634505302;0.0697209388
2.368220375;0.02026691847;-0.05578552559;0.0723516047
2.383296375;0.03460855037;-0.05034337565;0.0632769689
2.398372375;0.03764559329;-0.0483558327;0.06212688982
2.413447375;0.03023059107;-0.04343099892;0.0564099662
2.428523375;0.005167848431;-0.04042614996;0.06388279796
2.443599375;-0.01468930673;-0.04614665359;0.07047157735
2.458675375;-0.02948700637;-0.0504514873;0.07573785633
2.473750375;-0.051512409;-0.05298050493;0.07423905283
2.488826375;-0.06466576457;-0.04738919437;0.06473316252
2.503902375;-0.08200667053;-0.05171629786;0.06226840243
2.518978375;-0.09927354008;-0.06432709098;0.05423869193
2.534054375;-0.1022586972;-0.07429597527;0.04559198394
2.549129375;-0.09003078938;-0.06519781798;0.02885508165
2.564205375;-0.08587358892;-0.0841942206;0.03022129647
2.579281375;-0.09400414675;-0.07860423625;0.02844572812
2.594357375;-0.08672999591;-0.07382693142;0.02164565586
2.609433375;-0.07950218022;-0.0586399883;0.01729085483
2.624508375;-0.07491846383;-0.05297656357;0.01625109464
2.639584375;-0.06614266336;-0.04951423779;0.01214417163
2.654660375;-0.06056272984;-0.04452278838;0.006410571747
2.669736375;-0.0541391857;-0.03348531947;0.006027076859
2.684811375;-0.05429837108;-0.0268625617;0.005519973114
2.699887375;-0.06072623283;-0.01698982157;0.009554392658
2.714963375;-0.0648169294;-0.006060364656;0.007569085807
2.730039375;-0.06052631512;-0.000862672925;0.01063571591
2.745115375;-0.04352452233;-0.004064091481;0.01950576156
2.760190375;-0.04091765732;-0.008353022859;0.01694928855
2.775266375;-0.03666085005;-0.01016760245;0.01758701913
2.790342375;-0.02497569472;-0.01122540981;0.01632175222
2.805418375;-0.01002535783;-0.01748841815;0.01701224595
2.820493375;-0.01674321666;-0.01782973111;0.007691040635
2.835569375;-0.02456138656;-0.0153868068;0.002278394066
2.850645375;-0.03569952399;-0.0182337258;-0.0003695869818
2.865721375;-0.05091511831;-0.02225952223;-0.003798821941
2.880797375;-0.07323160768;-0.03086525947;-0.01655696146
2.895872375;-0.09334079176;-0.03206885606;-0.01991741732
2.910948375;-0.1021997929;-0.03670088947;-0.01351225004
2.926024375;-0.1124158427;-0.03817419708;-0.001616280992
2.941100375;-0.1149220094;-0.04124227911;0.008508223109
2.956175375;-0.09712800384;-0.03350583836;0.01709308289
2.971251375;-0.09451703727;-0.03614503145;0.02971566655
2.986327375;-0.09108180553;-0.02984024212;0.03445867449
3.001403375;-0.07676582038;-0.02626091056;0.02091660723
3.016479375;-0.06650690734;-0.0215748623;0.02462526225
3.031554375;-0.06700012088;-0.01943554729;0.02387212031
3.046630375;-0.08352511376;-0.01356023364;0.02412653156
3.061706375;-0.1187877655;-0.00324687548;0.02426980995
3.076783;-0.1504088193;0.003120598383;0.01831395738
3.091858;-0.166708976;0.01071699802;0.02078936622
3.106934;-0.1710288823;0.0006615575403;0.01847219095
3.12201;-0.1567597538;-0.003435654566;0.01887834817
3.137086;-0.1486084759;0.01441510301;0.01442690939
3.152162;-0.1461825967;0.01104940008;0.009892344475
3.167237;-0.1435796767;-0.001814383082;0.009135947563
3.182313;-0.1137901396;0.00185129419;0.006565322634
3.197389;-0.06931070238;-0.002273889259;0.01693520136
3.212465;-0.01481763273;-0.01600168645;0.0350417681
3.22754;0.02423426695;-0.03297197446;0.04564285278
3.242616;0.04080997407;-0.03735421598;0.06695323437
3.257692;0.04295637831;-0.06479772925;0.0964391157
3.272768;0.035560783;-0.07594253123;0.1211434007
3.287844;0.00570365414;-0.09506518394;0.1231203675
3.302919;-0.02702075802;-0.1126308814;0.09567763656
3.317995;-0.04586181417;-0.1472717971;0.05715443939
3.333071;-0.08875574917;-0.1485852748;0.05783568323
3.348147;-0.1482073814;-0.1641199887;0.07752457261
3.363222;-0.2214967757;-0.1637920737;0.1127010956
3.378298;-0.2922460139;-0.1758885384;0.1243020594
3.393374;-0.363720715;-0.1838556528;0.1104232594
3.40845;-0.4168351591;-0.1863924414;0.09458357096
3.423526;-0.4459756017;-0.1742194742;0.09378118068
3.438601;-0.4693057835;-0.1572950035;0.0784708336
3.453677;-0.4658625722;-0.1457030624;0.07412349433
3.468753;-0.4511552155;-0.1666418761;0.07865561545
3.483829;-0.4348304272;-0.1830275655;0.08681868017
3.498904;-0.41156286;-0.1679407507;0.08893957734
3.51398;-0.3982630074;-0.1475153714;0.06779541075
3.529056;-0.3746210337;-0.1651975363;0.04296351969
3.544132;-0.3170019388;-0.1301622987;0.02712961659
3.559208;-0.2201897353;-0.1052746922;0.0160189867
3.574283;-0.1141740829;-0.07438974082;0.001871210989
3.589359;-0.02760805748;-0.05218006298;-0.004846796393
3.604435;0.03188798204;-0.02986893989;-0.01390670426
3.619511;0.06360093504;-0.01143064816;-0.03165280074
3.634586;0.0701014474;0.003789850511;-0.04534224793
3.649662;0.05983772874;0.01556678955;-0.05480568856
3.664738;0.03979505599;0.03114349395;-0.06240746006
3.679814;0.02314358018;0.04786375165;-0.06634999812
3.69489;0.01728009991;0.06196225807;-0.05823588744
3.709965;0.02422049642;0.05957015231;-0.05363103002
3.725041;0.02707537264;0.04830934107;-0.0491671823
3.740117;0.02786215208;0.03948723897;-0.04648705572
3.755193;0.03314586729;0.03307008371;-0.03330680728
3.770268;0.03823082149;0.02107106335;-0.01890568249
3.785344;0.04085093364;0.01584916562;-0.01224630326
3.80042;0.04655986279;0.02529981732;-0.01124694943
3.815496;0.05829481781;0.0344046317;-0.0121476315
3.830572;0.06362432986;0.03322838992;-0.01524037495
3.845647;0.06884099543;0.02663686126;-0.01724145561
3.860723;0.074701868;0.02190947719;-0.01654898934
3.875799;0.07880207151;0.02752208896;-0.01888910867
3.890875;0.07200460136;0.03116567992;-0.02252934128
3.905951;0.07063230127;0.03654368967;-0.01950673759
3.921026;0.0654675588;0.03781693801;-0.02988770045
3.936102;0.06445316225;0.03901189938;-0.03680633008
3.951178;0.0741193071;0.03226698935;-0.0267428346
3.966254;0.09431346506;0.03646433353;-0.02590182424
3.981329;0.123395592;0.0481209904;-0.02356570587
3.996405;0.1516615897;0.05164728314;-0.02552605793
4.011481;0.174163729;0.05830021575;-0.0179579854
4.026557;0.1767193973;0.07378435135;-0.02051560767
4.041633;0.1737524718;0.08832444251;-0.0294676777
4.056708;0.1697164476;0.1077583283;-0.04883764684
4.07178775;0.1638277471;0.122843422;-0.06198202446
4.08686375;0.1818515509;0.1199235171;-0.06787183136
4.10193975;0.2136161774;0.1076634377;-0.07262413949
4.11701475;0.2571730018;0.08904580772;-0.06873378903
4.13209075;0.2966368496;0.07582743466;-0.05581197143
4.14716675;0.3341718316;0.07767196745;-0.04233969748
4.16224275;0.3532669544;0.09288648516;-0.03467223421
4.17731875;0.3838027716;0.1070262715;-0.03795750812
4.19239375;0.4423027337;0.1175691113;-0.03702826798
4.20746975;0.4839047492;0.1231924072;-0.04604745284
4.22254575;0.4894966483;0.09164914489;-0.07246471941
4.23762175;0.4831551313;0.07993922383;-0.09094359726
4.25269675;0.4897354543;0.07248674333;-0.09846294671
4.26777275;0.4678281248;0.07504247129;-0.09112122655
4.28284875;0.4324678183;0.09660983831;-0.09087820351
4.29792475;0.4053781331;0.109518446;-0.1155574545
4.31300075;0.386012733;0.1040729582;-0.1349490434
4.32807575;0.3531983495;0.08897186071;-0.1489517838
4.34315175;0.3323442042;0.09179106355;-0.1432503462
4.35822775;0.2995258272;0.07106047869;-0.1643793434
4.37330375;0.2694045305;0.04869544879;-0.169544518
4.38837975;0.275483042;0.02064348012;-0.1524842083
4.40345475;0.3012188077;0.002074631862;-0.1286101937
4.41853075;0.3456858695;0.005812377669;-0.1193762273
4.43360675;0.3715914488;0.003948513418;-0.1336769164
4.44868275;0.3814516664;0.02996352874;-0.1636332124
4.46375775;0.3627094328;0.02618024312;-0.1808641255
4.47883375;0.340211153;0.04704562575;-0.2173190117
4.49390975;0.3166473806;0.05307899415;-0.28737095
4.50898575;0.2757952511;0.05050141737;-0.3237096667
4.52406175;0.2177994251;0.04566478729;-0.3681330681
4.53913675;0.1549333781;0.01684059948;-0.3668757677
4.55421275;0.09845442325;-0.01704135537;-0.3619147539
4.56928875;0.05758050457;-0.02669650316;-0.3810605407
4.58436475;0.02751456015;-0.03148332983;-0.3153734505
4.59944075;0.00652459031;-0.01575683057;-0.2589077652
4.61451575;-0.005410620943;-0.02759044245;-0.2265264243
4.62959175;-0.0142675899;-0.04135981575;-0.2183000594
4.64466775;0.01145435683;-0.04260536283;-0.1877075583
4.65974375;0.05128219724;-0.01645738445;-0.1331391186
4.67481875;0.08044304699;0.01560318843;-0.06473948061
4.68989475;0.07949883491;0.03277239576;-0.02317394875
4.70497075;0.04465927556;0.03751374036;-0.01569810882
4.72004675;-0.02382204682;0.01203234494;-0.03662070259
4.73512275;-0.03776204214;0.02026728727;-0.07435017824
4.75019775;-0.01528739184;0.02271163836;-0.05618516356
4.76527375;0.02290389687;0.02574300021;-0.06252729893
4.78034975;0.08719474077;0.02648203075;-0.04673529044
4.79542575;0.1362432986;0.04069678485;-0.04125503451
4.81050175;0.1584530473;0.03258004412;-0.05617103353
4.82557675;0.1567493677;0.04326686263;-0.06313898414
4.84065275;0.1367801875;0.04965898022;-0.09688043594
4.85572875;0.1202079058;0.02536699735;-0.1004899889
4.87080475;0.1137542352;0.004702567123;-0.1056199074
4.88587975;0.1377661079;-0.008484054357;-0.09266477823
4.90095575;0.1662739217;-0.01641441509;-0.09625151753
4.91603175;0.1712123603;-0.01277073193;-0.09421693534
4.93110775;0.1907025427;0.00245631393;-0.1420471221
4.94618375;0.232119903;0.0002350630239;-0.1721806228
4.96125875;0.2838020027;0.02440910786;-0.2137933075
4.97633475;0.3582704067;0.03400802985;-0.2583470047
4.99141075;0.4428262413;0.1006288677;-0.3187893033
5.00648675;0.5809544921;0.1272980124;-0.2932101488
5.02156275;0.6634706855;0.1359812468;-0.2422739714
5.03663775;0.6933916807;0.1585285664;-0.1966481507
5.05171375;0.6328236461;0.1749609113;-0.1847822964
5.06678975;0.4852634966;0.1556714028;-0.1742209196
5.081861875;0.3004187942;0.1429010183;-0.1925080419
5.096937875;0.1291838437;0.09668460488;-0.2179629058
5.112012875;-0.05614672229;0.03592279181;-0.177954793
5.127088875;-0.2193960845;0.006725244224;-0.1103198975
5.142164875;-0.3244252801;0.009046722203;-0.02810039371
5.157240875;-0.3698815107;-0.02458625287;0.0188068673
5.172315875;-0.376872927;-0.05963973701;0.06454381347
5.187391875;-0.3410588503;-0.08192317933;0.1087740436
5.202467875;-0.2958975136;-0.09657403082;0.1468934566
5.217543875;-0.2467636019;-0.09807759523;0.1821244508
5.232619875;-0.1871412992;-0.08613286912;0.2116337121
5.247694875;-0.1551638991;-0.07533174753;0.2343703955
5.262770875;-0.1457613409;-0.0604497306;0.2638587654
5.277846875;-0.1433039904;-0.04691776261;0.287949264
5.292922875;-0.1516890973;-0.06348981708;0.3010368645
5.307997875;-0.1942134202;-0.08665301651;0.3203480542
5.323073875;-0.2324271053;-0.1037313342;0.3167498708
5.338149875;-0.2388156205;-0.09591341019;0.3005151749
5.353225875;-0.2094442993;-0.07599264383;0.261007756
5.368301875;-0.1514594555;-0.05776540935;0.2158252597
5.383376875;-0.0872636959;-0.00123502221;0.1884958893
5.398452875;-0.03838280216;0.01286292262;0.1404997259
5.413528875;-0.001513601164;0.03038932756;0.1121756434
5.428604875;0.01181934867;0.04055590555;0.1120269299
5.443679875;0.01504337136;0.03959903121;0.08624619991
5.458755875;0.02464100905;-0.0120470468;0.07326007634
5.473831875;0.0227817148;0.04058391228;0.04924269766
5.488907875;0.04401179031;0.02393186837;0.02857964486
5.503983875;0.05089899153;0.02475691587;0.0123900231
5.519058875;0.04705312848;0.03479718044;0.005994133651
5.534134875;0.03292030469;0.03861466423;0.005955337081
5.549210875;0.01387537643;0.03694498166;0.003556130687
5.564286875;-0.007185966708;0.03122105077;-0.001362195238
5.579362875;-0.008386471309;0.03459633514;-0.03962058946
5.594437875;0.003431433812;0.02403496578;-0.02875993215
5.609513875;0.01212795265;0.0258289706;-0.022549849
5.624589875;0.01739249006;0.02366968058;-0.01589460857
5.639665875;0.01587133668;0.02943493426;-0.01151467301
5.654740875;0.0007453697617;0.0323522836;-0.01380308717
5.669816875;6.892951205e-07;0.02846340276;-0.04033909366
5.684892875;-0.0005367365666;0.01637131907;-0.03569693863
5.699968875;-0.007098836824;0.005351409316;-0.03439434618
5.715044875;-0.005525320768;0.00241794344;-0.03444653749
5.730119875;0.01289689727;0.01217423007;-0.02504422888
5.745195875;0.017286852;0.01531090029;-0.01495457813
5.760271875;0.02158871666;0.02699911594;-0.008493213914
5.775347875;0.04367492348;0.0421689488;-0.002728825901
5.790422875;0.06764081866;0.04830371588;-0.00484220637
5.805498875;0.08070202172;0.04867975414;0.002997074276
5.820574875;0.08344842494;0.03840123489;0.01011963654
5.835650875;0.07164350897;0.03308465332;0.008459341712
5.850726875;0.05293874443;0.02576024085;0.003810468828
5.865801875;0.04471117631;0.01965467632;0.007037953474
5.880877875;0.03517665714;0.006104105152;0.016172098
5.895953875;0.01868050732;0.003970648162;0.02872277796
5.911029875;1.906510442e-05;0.01022447646;0.03362594545
5.926104875;-0.01286956854;0.02208379842;0.02571342513
5.941180875;-0.02353815362;0.03559412807;0.017913647
5.956256875;-0.03034698032;0.04159070551;0.008451944217
5.971332875;-0.02991785109;0.04625526816;0.001169409603
5.986408875;-0.02004604414;0.04192230105;0.003404600546
6.001483875;0.0005846869899;0.04142883793;0.008839496411
6.016559875;0.03046112508;0.03575274348;0.01323625073
6.031635875;0.06137167662;0.04398814589;0.01665849984
6.046711875;0.08855003864;0.05663656443;0.02158854343
6.061786875;0.108053796;0.04978181049;0.0244020652
6.076862375;0.1214056537;0.04707358778;0.02845795266
6.091938375;0.1240117326;0.04313097522;0.03376756236
6.107014375;0.1119031385;-0.0001741545275;0.04047553241
6.122090375;0.1187885478;0.05653148517;0.04004433006
6.137165375;0.0892990008;0.03835404664;0.02764317393
6.152241375;0.07186371833;0.02801995538;0.02831013687
6.167317375;0.06394507736;0.0232592877;0.03000523895
6.182393375;0.04459164292;0.01573987305;0.02398534492
6.197469375;0.02378275618;0.008695404977;0.01681482606
6.212544375;0.006615242921;0.006221613847;0.008941640146
6.227620375;-0.008676094934;-0.002755635418;0.002348718699
6.242696375;-0.03296991438;-0.01215280592;-0.004539263435
6.257772375;-0.0442942977;-0.02281724662;-0.01051133685
6.272847375;-0.05060410872;-0.02997069992;-0.0111233592
6.287923375;-0.05441615731;-0.02797652408;-0.003778892104
6.302999375;-0.05574335903;-0.02240913361;-0.004833442159
6.318075375;-0.07355966419;-0.006772136316;-0.008867248893
6.333151375;-0.09157302976;0.003369039856;-0.01553815976
6.348226375;-0.09723251313;0.005081984214;-0.002518764231
6.363302375;-0.09394617379;0.00463670399;0.003977217712
6.378378375;-0.1001587287;0.005547106266;0.004943948705
6.393454375;-0.09790239483;0.003418350592;-0.0004352666438
6.408529375;-0.07807969302;0.004875099286;-0.008220218122
6.423605375;-0.05469854176;-0.008375735953;-0.01446955465
6.438681375;-0.03073362447;-0.01637002639;-0.01388548501
6.453757375;-0.01547100116;-0.02922084928;-0.01257782802
6.468833375;-0.004459628835;-0.02030858025;-0.01018364541
6.483908375;-0.008179198019;-0.01970904507;-0.000343515072
6.498984375;-0.02242905274;-0.01829217933;0.01042792946
6.514060375;-0.02850681916;-0.01806452498;0.02125517093
6.529136375;-0.02755553834;-0.0222084038;0.03401943669
6.544211375;-0.009073011577;-0.02117742784;0.03101834282
6.559287375;-0.02194105648;-0.01468794886;0.02856948785
6.574363375;-0.02120336145;-0.01199815609;0.02074511908
6.589439375;-0.02088404819;-0.01072596386;0.01358947251
6.604515375;-0.02986236289;-0.005073404871;0.00934252888
6.619590375;-0.04700473696;0.003570877016;0.01461587474
6.634666375;-0.06339231133;0.009314281866;0.007654200308
6.649742375;-0.07498344779;0.008556080982;0.0009225280955
6.664818375;-0.08094453812;0.01188598294;0.01350805908
6.679893375;-0.09421211481;0.009453739971;0.00818271935
6.694969375;-0.1027272642;0.003713600338;0.001822126564
6.710045375;-0.08703431487;-0.005604800768;-0.006621159147
6.725121375;-0.06873752177;-0.01038714964;-0.01409913041
6.740197375;-0.04246572033;-0.003456949256;-0.02853555232
6.755272375;-0.02944047377;-0.01554704364;-0.01990607008
6.770348375;-0.02265527099;-0.004662171938;-0.008695759811
6.785424375;-0.037469659;-0.01256059576;-0.0047696447
6.800500375;-0.04049378633;-0.01368808653;0.001664981712
6.815575375;-0.02983741276;-0.01568385959;-0.0007707453333
6.830651375;-0.01342301909;-0.02337320521;-0.006600937806
6.845727375;-0.004529020749;-0.02894489467;-0.01433012635
6.860803375;0.009018141776;-0.0269946754;-0.01796849817
6.875879375;0.03138491139;-0.02439481393;-0.01775150932
6.890954375;0.01338087581;-0.02167119831;-0.01703938097
6.906030375;0.00761286309;-0.01834258437;-0.02145887539
6.921106375;-0.0008683224441;-0.008073855191;-0.02654995956
6.936182375;-0.01063235849;-0.002448277548;-0.02814433165
6.951258375;-0.02371859923;-0.007249424234;-0.03645818681
6.966333375;-0.02916285396;-0.007983082905;-0.04409549758
6.981409375;-0.03481803462;-0.008694371209;-0.04651088268
6.996485375;-0.03251608089;-0.009872179478;-0.04697206616
7.011561375;-0.02950750664;-0.01396732219;-0.04669616371
7.026636375;-0.02259813063;-0.0141939437;-0.04631377012
7.041712375;-0.01884837821;-0.01193210203;-0.04636019468
7.056788375;-0.007539762184;-0.004523557611;-0.03947737813
7.071864375;-0.001694922685;-0.006045820192;-0.02749528363
7.0869405;0.001806811662;-0.007004740648;-0.01490311697
7.1020155;0.00659267325;-0.005228320137;-0.004192519933
7.1170915;0.0004591741599;-0.004363622516;-0.0024458915
7.1321675;-0.004542774986;-0.006819589995;-0.003558560275
7.1472435;-0.007306814194;-0.008857521228;-0.01083026081
7.1623185;-0.01904468611;-0.01198073383;-0.02060437202
7.1773945;-0.03088180907;-0.01087442599;-0.03443321958
7.1924705;-0.04479309544;-0.01384651382;-0.04611198232
7.2075465;-0.04058296233;-0.0244556684;-0.05317421257
7.2226225;-0.04812143371;-0.02541087195;-0.057698939
7.2376975;-0.04052497074;-0.02928726189;-0.06029598415
7.2527735;-0.06467211992;-0.02573673613;-0.07174331695
7.2678495;-0.06105349585;-0.02819602937;-0.06509658694
7.2829255;-0.06151596084;-0.02890243754;-0.05954146385
7.2980005;-0.06312503666;-0.0249180831;-0.05204626918
7.3130765;-0.05386895686;-0.02293615788;-0.04189988971
7.3281525;-0.04871603847;-0.0238218233;-0.03314328939
7.3432285;-0.03424441069;-0.02055025473;-0.02683456987
7.3583045;-0.02307539061;-0.01800521277;-0.0196040459
7.3733795;-0.01587313786;-0.009945422411;-0.01010588184
7.3884555;-0.01326150354;-0.01112007163;-0.00130655244
7.4035315;-0.01553031709;-0.01097525936;0.001433822326
7.4186075;-0.02223596349;-0.01038138196;0.002122022212
7.4336825;-0.02554334328;-0.007427670062;0.001390984748
7.4487585;-0.04118958488;-0.01072463207;0.0003530289978
7.4638345;-0.045762036;-0.01552930661;-0.001754880883
7.4789105;-0.05585074425;-0.01722946577;-0.003599658608
7.4939865;-0.05904573947;-0.01928702369;-0.004024166614
7.5090615;-0.05725683272;-0.02249306999;-0.005157604814
7.5241375;-0.05066950619;-0.02134307101;-0.005965818651
7.5392135;-0.05007436872;-0.01853550039;-0.008614040911
7.5542895;-0.04310248047;-0.01268586703;-0.009697416797
7.5693655;-0.03839522228;-0.01075795293;-0.009959673509
7.5844405;-0.03170676902;-0.006686257664;-0.008572129533
7.5995165;-0.02677801624;-0.004311669618;-0.01073799189
7.6145925;-0.02391218953;0.0005637789145;-0.01167169679
7.6296685;-0.01392510254;0.002828632481;-0.01366814412
7.6447435;-0.00313653145;0.001197884791;-0.01482092217
7.6598195;-0.002157625742;0.007651515305;-0.01684408635
7.6748955;-0.002427137922;0.009159663692;-0.01729469374
7.6899715;0.00178125652;0.006972471252;-0.02088594995
7.7050475;-0.004216575995;0.005069181323;-0.02226255834
7.7201225;0.04155819118;0.007374241948;-0.01021002606
7.7351985;-0.008184065111;0.005505502224;-0.02519376948
7.7502745;-0.01422460843;-0.004941711202;-0.03047679178
7.7653505;-0.0235018339;-0.01018858142;-0.03483542427
7.7804255;-0.01918796822;-0.009367841296;-0.02464359999
7.7955015;-0.01901832595;-0.01461932808;-0.01702989265
7.8105775;-0.01717875898;-0.01306325756;-0.007089565508
7.8256535;-0.01428137813;-0.01076315716;-0.002449519001
7.8407295;-0.01352940593;-0.0063462127;0.0002944981679
7.8558045;-0.01241221;-0.005967510864;-0.0006780880503
7.8708805;-0.01130266581;-0.008193369955;0.002156542148
7.8859565;-0.02079602331;-0.00274173636;-0.002196968533
7.9010325;-0.02816216275;-2.581067383e-05;-0.00755061442
7.9161075;-0.03713994473;0.0005808565766;-0.01048967801
7.9311835;-0.03913617507;-0.004097573459;-0.01062179543
7.9462595;-0.04330429435;-0.003681730479;-0.01249448955
7.9613355;-0.04643217847;-0.006243425421;-0.01573848538
7.9764115;-0.03783176467;-0.004374419339;-0.009488046169
7.9914865;-0.03049580008;1.236144453e-05;-0.009183196351
8.0065625;-0.01430852525;-0.009420039132;-0.01127400156
8.0216385;-0.007737102918;-0.004800526425;-0.009939990938
8.0367145;0.001228429144;-0.004141660407;-0.0108960662
8.0517895;0.004221338779;-0.008899937384;-0.007050949149
8.0668655;0.00679410249;-0.002778180875;-0.01176587213
8.0819415;0.001305737882;-2.605374902e-05;-0.01904809661
8.0970175;-0.0009784554131;-0.0005317879841;-0.0204909984
8.1120935;-0.00543806795;-0.002702215686;-0.02460898086
8.1271685;-0.002279176377;-0.003084329888;-0.02638178505
8.1422445;0.0009796835948;-0.005176492035;-0.02823858708
8.1573205;0.01323155593;-0.003024658188;-0.02246272191
8.1723965;0.01339829154;-0.001140980981;-0.01912000403
8.1874715;0.01968334056;0.002279970795;-0.01434038766
8.2025475;0.01103637367;0.001980614848;-0.01229583472
8.2176235;0.008510631509;0.003573982976;-0.005876551848
8.2326995;0.008736274205;0.00186982099;0.0004772501998
8.2477755;0.008771571331;-0.0002702726051;-0.004442750011
8.2628505;0.00586281158;-0.002428152598;-0.001396685839
8.2779265;0.00645429967;-0.00469157286;0.0009421021678
8.2930025;0.01392399985;-0.006611912511;0.006017572712
8.3080785;0.02271624282;-0.0006097964942;0.00975097809
8.3231545;0.02874045819;0.001370797865;0.0139286723
8.3382295;0.03848549724;0.004155399278;0.01880145818
8.3533055;0.03919834644;0.006289718673;0.02101110667
8.3683815;0.03570830077;0.008988794871;0.02151643485
8.3834575;0.03033837117;0.01220622566;0.01867832243
8.3985325;0.0281074401;0.007868469693;0.01542766858
8.4136085;0.02501760982;0.01121962629;0.01449382212
8.4286845;0.02606086247;0.01393021736;0.01573579945
8.4437605;0.03511656076;0.01548838522;0.01518313214
8.4588365;0.04521180317;0.01395067666;0.01455888711
8.4739115;0.05551846698;0.01709868945;0.0159415137
8.4889875;0.05456840992;0.01793474704;0.01809910312
8.5040635;0.05821996182;0.02090314031;0.02307057008
8.5191395;0.05799758807;0.02049381286;0.02480056137
8.5342155;0.05776952952;0.01873556152;0.02860527486
8.5492905;0.0581952706;0.02346297726;0.02627484873
8.5643665;0.05242891982;0.02242114022;0.02626583353
8.5794425;0.04940569773;0.02204350382;0.02387351543
8.5945185;0.04519871622;0.01811681874;0.0191958975
8.6095945;0.04307763651;0.01933274418;0.01387279108
8.6246695;0.05468455702;0.0168214459;0.01500012539
8.6397455;0.05626620725;0.0171756465;0.01447574794
8.6548215;0.0598209165;0.01846654154;0.01596900634
8.6698975;0.06094967201;0.02662317827;0.02291889489
8.6849725;0.06668680161;0.02304810099;0.02833836526
8.7000485;0.0589303486;0.02080092393;0.02665871009
8.7151245;0.06136488914;0.02283419669;0.02777664363
8.7302005;0.06631656736;0.02734918334;0.02499177866
8.7452765;0.06633011252;0.02803111076;0.02710704133
8.7603515;0.05680105463;0.02756425738;0.02842077799
8.7754275;0.04615394026;0.02754602022;0.02817356214
8.7905035;0.03787796944;0.02105623111;0.0277970098
8.8055795;0.03310257196;0.01444265619;0.02996197343
8.8206545;0.0262039192;0.008548814803;0.03139315546
8.8357305;0.01983538456;0.01099940483;0.02943753451
8.8508065;0.01310086157;0.008840321563;0.03138854355
8.8658825;0.006983025465;0.0097369859;0.03503902256
8.8809585;3.945664503e-06;0.01000809576;0.03313139826
8.8960335;-0.003217180725;0.01020713523;0.0262211524
8.9111095;-0.005981469527;0.01072193123;0.02546637319
8.9261855;-0.003135349602;0.005865657702;0.02797693573
8.9412615;-0.002994734794;0.005090411752;0.02163142338
8.9563375;-0.001818310702;0.002008771524;0.02012710646
8.9714125;0.001367195626;-0.0002096733078;0.01575355791
8.9864885;-3.376044333e-07;-0.009264687076;0.006105723325
9.0015645;-0.006298447028;-0.005022005178;-0.004367423709
9.0166405;-0.01038305834;-0.004154071212;-0.008943878114
9.0317165;-0.01242884435;-0.001467550173;-0.009591232985
9.0467915;-0.01160595473;-0.00332879927;-0.01238022186
9.0618675;-0.01009727456;-0.002821200527;-0.01370594278
9.07694425;-0.01202405989;-0.003838651814;-0.01119968388
9.09202025;-0.009497414343;-0.005305878818;-0.009905284271
9.10709525;-0.003512286348;-0.003472693264;-0.003456176259
9.12217125;0.003971994855;-0.00053629186;-0.002156287432
9.13724725;0.003196049714;-0.0007272642106;-0.002251806203
9.15232325;-0.0017030905;-0.0001542745158;0.0004549897276
9.16739925;0.00124704279;0.003085144795;0.001826722175
9.18247425;-0.009279101156;-0.001212663949;-0.0005709221587
9.19755025;-0.01934503019;-0.002923191525;-0.004293039441
9.21262625;-0.01692065969;-0.004015325569;-0.004680916667
9.22770225;-0.02091534436;-0.004984527826;-0.005385529716
9.24277825;-0.02450182475;-0.00365347974;-0.006714180578
9.25785325;-0.02494888566;-0.009565014392;-0.006815194618
9.27292925;-0.02407723293;-0.01256719604;-0.007132643368
9.28800525;-0.02296792716;-0.01243167836;-0.01415763702
9.30308125;-0.02375142835;-0.01320186444;-0.02094550058
9.31815725;-0.02732946351;-0.01568653435;-0.02130021155
9.33323225;-0.03182340041;-0.01382450294;-0.01847439259
9.34830825;-0.02789199352;-0.01388651226;-0.01936245523
9.36338425;-0.03411154076;-0.01021268126;-0.01734031737
9.37846025;-0.03048948012;-0.00739682978;-0.01650498807
9.39353625;-0.02984266728;-0.009362038225;-0.01503094472
9.40861125;-0.03127977997;-0.006409933791;-0.01701016724
9.42368725;-0.02756600268;-0.008009694517;-0.01730231941
9.43876325;-0.01818966679;-0.009661637247;-0.01500861347
9.45383925;-0.01099864207;-0.003982224502;-0.01074765623
9.46891425;0.0005706775119;-0.007921226323;-0.01094555669
9.48399025;0.009494664147;-0.001932575367;-0.003405614756
9.49906625;0.01132975984;0.0009595314041;0.002803610638
9.51414225;0.01062321197;0.006343500689;-0.0002973331138
9.52921825;0.002363118343;0.005184857175;-0.003726561088
9.54429325;-0.01864096709;0.0002580098808;-0.01438719407
9.55936925;-0.03598159179;-0.01228087209;-0.02716879547
9.57444525;-0.05363335088;-0.018235825;-0.03138412163
9.58952125;-0.07867772132;-0.02546012029;-0.05026454479
9.60459725;-0.08432228863;-0.04000390694;-0.05731233954
9.61967225;-0.08591796458;-0.04743703082;-0.05738995597
9.63474825;-0.08157762885;-0.04650853574;-0.05568145588
9.64982425;-0.07739502192;-0.04462663829;-0.04363779724
9.66490025;-0.05301085114;-0.03825129569;-0.0344280526
9.67997525;-0.04615025595;-0.03613784909;-0.02735103667
9.69505125;-0.04508488625;-0.02891571447;-0.02572453953
9.71012725;-0.02892871201;-0.0181459859;-0.02631965466
9.72520325;-0.01199553721;-0.02021206543;-0.0299431514
9.74027925;-0.005028546788;-0.02375078015;-0.03408899531
9.75535425;0.0009407404577;-0.01016845368;-0.03524270281
9.77043025;0.001793756615;-0.004103957675;-0.03244830295
9.78550625;0.0007647111779;-0.006501335651;-0.03221740574
9.80058225;-0.001955641434;-0.002297471277;-0.02710491791
9.81565825;-0.002189649967;0.0001557171345;-0.01608430594
9.83073325;-0.004887260497;-0.0006861360744;-0.005344987847
9.84580925;-0.002889090683;-0.002060327679;0.00592151517
9.86088525;-0.008513125591;0.002628395334;0.007663083728
9.87596125;-0.02454985492;0.002229678445;0.009161043912
9.89103725;-0.04005968198;-0.002401931211;0.001138951629
9.90611225;-0.05325777829;-0.006133019924;-0.002248322591
9.92118825;-0.06662492454;-0.01296117902;-0.007038758136
9.93626425;-0.07389688492;-0.02223456278;-0.01110677514
9.95134025;-0.07144418359;-0.02732174098;-0.009764770046
9.96641625;-0.0644376725;-0.03283208981;-0.004151891917
9.98149125;-0.04550973698;-0.02335524559;0.00728429947
9.99656725;-0.02929281257;-0.01939585246;0.01812307723
10.01164325;-0.005076899659;-0.01139339618;0.02636215836
10.02671925;0.03338580206;-0.008367246017;0.01554786041
10.04179425;0.02366765216;0.01204600558;0.02571691573
10.05687025;0.01493344363;0.01056085434;0.03135392442
10.07194625;0.00145091326;0.006327084266;0.02922770008
10.08702188;-0.01685458981;-0.001634968445;0.02721994184
10.10209788;-0.0181147866;0.009986144491;0.02533145249
10.11717288;-0.02536286786;0.01133554615;0.01907017827
10.13224888;-0.03136113659;0.005255917087;0.01116737165
10.14732487;-0.04570172727;0.01447284967;0.003954200074
10.16240088;-0.04919851199;0.01023391262;0.02110171691
10.17747688;-0.06376282126;0.009002855048;0.01034711488
10.19255188;-0.06126198545;0.001078339294;-0.0007609236054
10.20762788;-0.05187381059;0.003803286701;-0.009809812531
10.22270387;-0.06331405789;0.005573380738;-0.02060285211
10.23777988;-0.06598920375;6.776489317e-05;-0.02625759691
10.25285488;-0.06369585544;-0.009638156742;-0.02779701166
10.26793088;-0.06508016586;-0.005870050751;-0.02163046412
10.28300687;-0.04687034711;-0.0167444814;-0.0242547188
10.29808288;-0.04195324332;-0.01558296662;-0.02109369263
10.31315888;-0.02341562696;-0.02088563703;-0.01705054566
10.32823388;-0.02034473605;-0.009628988802;-0.01021634229
10.34330988;-0.0076307212;-0.01179585047;-0.005097026471
10.35838587;-0.004844577517;-0.01103517227;-0.001705549657
10.37346188;0.003708941396;-0.007807445712;-0.001989892684
10.38853788;0.004143835511;-0.00372055918;-0.002945435233
10.40361288;0.006313162856;0.0002247653902;-0.008048238233
10.41868888;0.001229188521;-0.005379323848;-0.01454608515
10.43376487;0.000563470996;0.002206960693;-0.01689769514
10.44884088;-0.001098874025;0.004716457799;-0.0215960443
10.46391687;-0.001122937305;0.00423519779;-0.02657017112
10.47899188;0.005505725741;0.003860677592;-0.03368448466
10.49406787;0.01780387573;0.001971033402;-0.03685817495
10.50914388;0.02739365213;0.007418529131;-0.03965502605
10.52421988;0.0385935232;0.00877096504;-0.04094965011
10.53929488;0.05086480081;0.008128979243;-0.04078307748
10.55437088;0.05372860283;0.01416706853;-0.04003356397
10.56944687;0.05225800723;0.01800255291;-0.03191890568
10.58452288;0.0425048843;0.0145625202;-0.03394624963
10.59959888;0.03368842229;0.01469534356;-0.02441321872
10.61467388;0.02089576237;0.006265873089;-0.00997180026
10.62974988;0.006231064908;0.002558486536;0.0006763157435
10.64482587;-0.00793787092;-0.006870955694;0.01277098525
10.65990188;-0.01435881387;-0.01194973104;0.01972236484
10.67497787;-0.0264446456;-0.01048985776;0.02089417726
10.69005288;-0.0332428962;-0.01545825042;0.02112001367
10.70512887;-0.03541750461;-0.01856942847;0.02196132578
10.72020488;-0.02575113438;-0.02040238678;0.02055747062
10.73528088;-0.01928017475;-0.01904829219;0.01986314356
10.75035687;-0.01581700146;-0.01494356338;0.02243176103
10.76543188;-0.002371405251;-0.004316456616;0.02635207959
10.78050787;0.003029796062;0.001519370824;0.02904330567
10.79558388;0.008624225855;0.01010459382;0.02674397081
10.81065988;0.02147424407;-0.002781110816;0.02266001329
10.82573587;0.02592651732;0.0002085538581;0.01859229989
10.84081087;0.02917665616;0.002179915085;0.01313778199
10.85588688;0.03248044848;0.002178654075;-0.01548030041
10.87096288;0.02752962895;0.006350763142;0.01149405912
10.88603887;0.02491233125;0.0001431228593;0.007166481111
10.90111488;0.02556909434;-0.0004207082093;0.01878518052
10.91618987;0.02617455274;0.006115476601;0.02252726443
10.93126588;0.02450022288;0.004497871734;0.02045026608
10.94634188;0.02615370229;-0.002643868327;0.01341155544
10.96141787;0.0253882762;-0.00404778868;0.01380156633
10.97649288;0.02447753027;-0.003833747469;0.01967203245
10.99156887;0.0226913467;-0.00469448138;0.01578514837
11.00664488;0.02847833559;-0.01117674541;0.01856122352
11.02172088;0.03219568357;-0.003516786732;0.02104499191
11.03679687;0.02928228863;-0.0002419920638;0.01886929199
11.05187187;0.03184717894;-0.001625770703;0.02113537677
11.06694788;0.02165089175;-0.006655529607;-0.00485186791
11.08202392;0.02809098922;0.0006391806528;0.01233520918
11.09709992;0.02932357974;0.002449274994;0.009140989743
11.11217592;0.03101468645;-0.003507949412;0.007338562515
11.12725092;0.04495504498;-0.006732932292;0.01368789002
11.14232692;0.04112359509;0.0008209040388;0.01511251647
11.15740292;0.04549476132;0.003336310387;0.0243393667
11.17247892;0.05383391678;0.003105679527;0.02850934491
11.18755492;0.04742247984;-0.001207116991;0.02821828052
11.20262992;0.02591580525;-0.002438220195;0.02600700036
11.21770592;0.01264572237;-0.005287418142;0.02562997676
11.23278192;0.0004977127537;-0.01022731606;0.01907353848
11.24785792;-0.0127337873;-0.02221984416;0.000969841145
11.26293392;-0.01804516092;-0.01712638326;-0.003285215702
11.27800892;-0.01549669541;-0.01609938405;-2.503953874e-05
11.29308492;-0.01689032651;-0.02143529244;0.005549755413
11.30816092;-0.01822213456;-0.005091629922;0.005114148371
11.32323692;-0.01765867509;-0.02533598244;-0.0002974122763
11.33831292;-0.0168926958;-0.02748443186;0.0006856191903
11.35338792;-0.02364540659;-0.02519571222;-0.01799752004
11.36846392;-0.01074475516;-0.02138163149;-0.002776880283
11.38353992;-0.01030346937;-0.01538339444;-0.003299126867
11.39861592;-0.005875370465;-0.01354701817;-0.002703374717
11.41369192;-0.001323229168;-0.01485356502;-0.0002476735972
11.42876692;-0.001141046872;-0.01124149561;3.400631249e-05
11.44384292;0.001054901164;-0.01334302407;-0.01594909839
11.45891892;0.00619387161;-0.01093513332;0.007704528514
11.47399492;0.01441211998;-0.01802473515;0.01397973485
11.48907092;0.008741666563;-0.01327310037;0.0141285602
11.50414592;0.004255039152;-0.008702583611;0.01094075665
11.51922192;-0.00141543604;-0.008483409882;0.003722297493
11.53429792;-0.01506573334;-0.008140660822;0.001498558093
11.54937392;-0.01752690971;-0.007251381874;-0.003743545618
11.56444992;-0.0230436828;-0.004859763198;-0.01038188208
11.57952492;-0.02494445629;-0.009420374408;-0.01535904221
11.59460092;-0.02670560591;-0.01165982615;-0.0181071572
11.60967692;-0.01969664358;-0.00442143064;-0.0217159465
11.62475292;-0.01241774671;0.0006924476475;-0.02283346839
11.63982892;0.005113398191;-0.00682982523;-0.01990725286
11.65490392;0.01853360049;-0.00537973363;-0.0143947769
11.66997992;0.02855043672;-0.000392283313;-0.01076154225
11.68505592;0.03854195029;0.009837855585;-0.004394422751
11.70013192;0.02821411379;0.003151754849;-0.003899767529
11.71520792;0.0001534500625;-0.001837677322;-0.01270444319
11.73028292;-0.02013900504;-0.001586372964;-0.01422709785
11.74535892;-0.03131190687;-0.01156477723;-0.02017098665
11.76043492;-0.0395219177;-0.01952419057;-0.0245352909
11.77551092;-0.04193501174;-0.02441641688;-0.02165162005
11.79058692;-0.03620493039;-0.02837438323;-0.01534027793
11.80566192;-0.02730537206;-0.02075215057;-0.004055969883
11.82073792;-0.01873617992;-0.01973467879;0.0001307823695
11.83581392;-0.0129190376;-0.01518493425;0.0007249335758
11.85088992;-0.007064056117;-0.006470248103;-0.0001153764315
11.86596492;-0.01008434594;-0.002207593061;-0.003552719019
11.88104092;-0.01241542213;-0.00291933585;-0.009095514193
11.89611692;-0.01678380743;-0.0002007810399;-0.01270782575
11.91119292;-0.01692065224;0.005125109106;-0.01343451627
11.92626892;-0.006971454248;0.006821638905;-0.01112512685
11.94134492;0.001534120413;0.004894351587;-0.01059555076
11.95641992;0.008292424493;0.007896266878;-0.0196867846
11.97149592;0.009217234328;0.005969031714;-0.01961524971
11.98657192;0.001901432173;0.007746724412;-0.0260464102
12.00164792;-0.0056187585;0.009011505172;-0.0287123993
12.01672292;-0.01350837294;0.006231166422;-0.03192736953
12.03179892;-0.01729918271;0.005301386118;-0.03001683578
12.04687492;-0.01678216457;-0.002195175737;-0.02796151116
12.06195092;-0.01206795685;-0.0009328331798;-0.0222911872
12.07702692;-0.003440380096;0.005348231643;-0.01561703999
12.09210213;-0.003744618734;0.0105063403;-0.005994343664
12.10717813;-0.003319344716;0.01888633892;-0.005174497608
12.12225412;-0.009794849902;0.0217309054;-0.008139789104
12.13733013;-0.01429985464;0.02284464054;-0.01292362623
12.15240613;-0.01613548771;0.01618422382;-0.02057283744
12.16748113;-0.004365518689;0.009396286681;-0.02127669007
12.18255713;-3.122386988e-05;0.007456704974;-0.02633243427
12.19763312;-0.006968663074;0.01591652632;-0.02517434582
12.21270913;-0.003582771868;0.02568821982;-0.02248326689
12.22778513;-0.01989539899;0.02413469926;-0.02715803683
12.24286013;-0.02981412411;0.01915805414;-0.03349807113
12.25793613;-0.02416715585;0.01585919783;-0.03823663294
12.27301212;-0.01431916934;0.01692734286;-0.03717888892
12.28808813;-0.01497128047;0.009771671146;-0.04230398312
12.30316412;-0.02335489914;0.01072549261;-0.03656837344
12.31823913;-0.0253067296;0.01621799543;-0.02788886614
12.33331512;-0.02610288933;0.02159191668;-0.02147222683
12.34839113;-0.01483745128;0.01730822027;-0.0158678703
12.36346713;0.003499212209;0.01522243489;-0.009905053303
12.37854312;0.01446717419;0.0184587054;-0.0006556287408
12.39361813;0.02978198975;0.02318565175;0.0113150999
12.40869412;0.01603814028;0.03416453302;0.004411425907
12.42377013;-0.001636628062;0.04351858795;-0.002349913586
12.43884613;-0.02290702984;0.04198088124;-0.0101849325
12.45392212;-0.02950390615;0.02780817077;-0.01105197333
12.46899712;-0.02341175266;0.02005089074;-0.01715235412
12.48407313;-0.01622300968;0.01193544175;-0.011607958
12.49914913;-0.01989470981;0.0188527368;-0.00444618566
12.51422512;-0.03187892959;0.03526414186;0.003002690617
12.52930113;-0.04534003884;0.03666167706;0.006855322979
12.54437612;-0.04497955367;0.01652433351;0.005949730054
12.55945213;-0.03658926487;0.01241986919;0.001626088284
12.57452813;-0.01494641788;0.01321702823;0.004879917949
12.58960412;-0.003794131568;0.02756603993;0.01609809324
12.60468013;-0.01171564218;0.04435153678;0.02344868705
12.61975512;-0.02591108903;0.05249680951;0.02210299298
12.63483113;-0.03834749758;0.04068731517;0.01714676619
12.64990713;-0.03528993949;0.0153648369;0.004563959781
12.66498312;-0.02286202461;0.01007466763;0.006537306588
12.68005913;-0.01145650633;0.0315919444;0.01796999015
12.69513413;-0.02258223295;0.05229385942;0.01721861027
12.71021013;-0.04829398915;0.0584859699;0.01006855443
12.72528612;-0.06081479415;0.03597165272;-0.002822643146
12.74036213;-0.05247990042;0.00275271479;-0.01061025821
12.75543813;-0.04089862481;-0.00538285356;0.001269878354
12.77051313;-0.02561377548;0.02095423639;0.02286768705
12.78558913;-0.01901574992;0.06092087924;0.03320245072
12.80066512;-0.044387687;0.04398370534;0.02272664197
12.81574113;-0.07410500199;0.02173488215;0.009844010696
12.83081713;-0.07432099432;-0.006194684654;0.01349845715
12.84589213;-0.03460589424;-0.01777739823;0.02985033207
12.86096812;-0.02431597374;0.01200153586;0.05035560578
12.87604413;-0.03065170906;0.05224887282;0.046778474
12.89112013;-0.05322624743;0.04474763945;0.02255060524
12.90619612;-0.06593132764;0.0145615777;0.004366291687
12.92127213;-0.04120121151;0.002675889991;0.01220823638
12.93634712;-0.01090573147;0.02604714409;0.03013172373
12.95142313;0.007810731418;0.06487486511;0.0325739868
12.96649913;-0.001731841592;0.07414087653;0.01301015541
12.98157512;-0.01581303962;0.04901847616;-0.008515642956
12.99665013;-0.001840159646;0.0245831795;-0.0005834568292
13.01172612;0.0284407381;0.04428147152;0.02615085058
13.02680213;0.0375489071;0.08081880212;0.03395806998
13.04187813;0.02498012036;0.08783143759;0.01174943801
13.05695412;0.00837209262;0.07400402427;-0.01935167238
13.07202912;0.01848781481;0.05888129771;-0.01269469596
13.08710425;0.03964507952;0.06419247389;0.004008946009
13.10218025;0.04891048372;0.0865142867;0.01709838212
13.11725625;0.03720606118;0.09072999656;-0.001854133792
13.13233225;0.0124349352;0.08683517575;-0.01952022687
13.14740825;0.03223731741;0.07792276144;-0.004182735924
13.16248325;0.05019368231;0.08230419457;0.02483799681
13.17755925;0.05118357763;0.1010467261;0.04675155133
13.19263525;0.033022888;0.0887555778;0.04156397283
13.20771125;-0.002599353902;0.07238531858;0.01427561231
13.22278725;0.007488167845;0.06107115;0.04752198234
13.23786225;0.01915394515;0.0917095542;0.08825025707
13.25293825;0.02157410607;0.1069971621;0.07652162015
13.26801425;0.005604725797;0.1095958799;0.04879651219
13.28309025;0.007873472758;0.09235963225;0.02679081261
13.29816625;0.0150096463;0.07766440511;0.04058424383
13.31324125;0.03284781426;0.09510544688;0.05198429152
13.32831725;0.02332217433;0.0997627452;0.04832953215
13.34339325;0.02709374204;0.09449128062;0.06509999186
13.35846925;0.01387706213;0.06274498999;0.0460722968
13.37354525;-0.007028986234;0.07115142792;0.07478877157
13.38862025;-0.003908223473;0.07962752134;0.1134937704
13.40369625;-0.01851992309;0.07534596324;0.1215847209
13.41877225;-0.03093030676;0.05848391727;0.08628873527
13.43384825;-0.04187266156;0.06505429745;0.06648342311
13.44892425;-0.0429890044;0.0827152431;0.1000438482
13.46399925;-0.02989237569;0.07063354552;0.1131444573
13.47907525;0.003416482825;0.06890806556;0.1018855423
13.49415125;0.008172344416;0.07558605075;0.02445443906
13.50922725;-0.003302311292;0.1240474954;0.03745076805
13.52430325;0.0003720520763;0.1225255057;0.06024449691
13.53937925;0.01550964173;0.09594327956;0.07331643254
13.55445425;0.01413983945;0.08263779432;0.06193197519
13.56953025;-0.007059112657;0.08078071475;0.04843718559
13.58460625;-0.02972900495;0.1057124287;0.05562079698
13.59968225;-0.02201495878;0.1120136678;0.06921435148
13.61475825;-0.02473908477;0.08810676634;0.06012516469
13.62983325;-0.03383510187;0.08063013107;0.05915465206
13.64490925;-0.04737674445;0.09005106241;0.05991125479
13.65998525;-0.047601033;0.0927278325;0.0478082113
13.67506125;-0.04679483175;0.07330386341;0.03070354089
13.69013725;-0.0536290668;0.07158942521;0.01998763904
13.70521225;-0.05670341849;0.06528492272;0.0193594005
13.72028825;-0.04446347803;0.06936619431;0.0158059895
13.73536425;-0.03697277606;0.07122498006;0.006368420552
13.75044025;-0.05133939534;0.08788019419;-0.01426333748
13.76551625;-0.05925670639;0.0838867873;-0.009668584913
13.78059225;-0.03901295736;0.06875129789;0.02418790013
13.79566725;-0.0247975681;0.06221887842;0.02874657325
13.81074325;-0.00663772691;0.08073145151;0.03137587011
13.82581925;-0.01119972207;0.09325309843;0.02244442701
13.84089525;-0.0004558078945;0.09977283329;0.003504315158
13.85597125;0.01236953028;0.111938253;-0.003847139422
13.87104625;0.004018729553;0.1099744365;-0.01569797844
13.88612225;-0.01341379061;0.09450866282;-0.0281570442
13.90119825;-0.008557761088;0.07759308815;-0.03329303116
13.91627425;-0.002735397546;0.08938432485;-0.02402853221
13.93135025;-0.02195935324;0.09495699406;-0.0239310991
13.94642525;-0.03745841607;0.08913505822;-0.03110991791
13.96150125;-0.03902701661;0.0758818388;-0.02868271247
13.97657725;-0.05339032039;0.09344165027;-0.0242389217
13.99165325;-0.05238526314;0.09112042189;-0.02048697881
14.00672925;-0.03533277661;0.07474809885;-0.02641703933
14.02180425;-0.01235693134;0.07505058497;-0.01630138792
14.03688025;-0.01099748351;0.09105589986;-0.01219041273
14.05195625;-0.01165653113;0.08679338545;-0.01440650783
14.06703225;-0.007351530716;0.07521156222;-0.01143948175
14.08210892;-0.0132724084;0.087843135;-0.01552288607
14.09718492;-0.01978109032;0.09042813629;-0.02403123304
14.11225992;-0.01874868944;0.07650949806;-0.02576505207
14.12733592;-0.01869329624;0.06504938006;-0.016533738
14.14241192;-0.02150527388;0.06631031632;-0.008956985548
14.15748792;-0.0280969236;0.06489498913;-0.01257009991
14.17256392;-0.03636455163;0.07178127021;-0.006805805955
14.18763892;-0.04859378561;0.07777790725;-0.02118474618
14.20271492;-0.05405275524;0.07334558666;-0.04229367524
14.21779092;-0.03864457831;0.06609220058;-0.03420428559
14.23286692;-0.01699212007;0.07707624137;-0.03804493323
14.24794292;-0.005574881565;0.07055336237;-0.04522667825
14.26301792;0.01421587821;0.06374246627;-0.04099282622
14.27809392;0.01783504896;0.07950431108;-0.01656313613
14.29316992;-7.488869596e-05;0.08902627975;-0.0154979378
14.30824592;-0.006535717752;0.07498262823;-0.02312789299
14.32332192;0.002855354687;0.07285939157;-0.03012549132
14.33839692;-0.0005177317653;0.07493904978;-0.03662097827
14.35347292;0.0183457043;0.0475223437;-0.02375951037
14.36854892;0.03262930363;0.0385075435;0.003696349682
14.38362492;0.01419626549;0.07645695657;0.01765331998
14.39870092;-0.0009575582808;0.07269899547;0.002383165527
14.41377692;-0.001021251199;0.06448762119;-0.004430366214
14.42885192;-0.01156097744;0.066767551;-0.01190665923
14.44392792;-0.02024433203;0.05078028142;-0.03005057015
14.45900392;-0.009153414518;0.03302298114;-0.02847949229
14.47407992;-0.01223863475;0.07583487034;-0.03124860302
14.48915592;-0.02511501871;0.09100955725;-0.04063304886
14.50423092;-0.02520410344;0.07270420343;-0.04740703106
14.51930692;-0.008662148379;0.08040610701;-0.04580995068
14.53438292;-0.002643635031;0.08767347038;-0.05113478005
14.54945892;0.01688905433;0.0768282786;-0.0492111817
14.56453492;0.02918130904;0.09649840742;-0.04042210802
14.57960992;0.01944888383;0.08915125579;-0.05094569549
14.59468592;0.02095492184;0.05974550173;-0.04600829259
14.60976192;0.01918498427;0.06632962823;-0.03548055142
14.62483792;5.705445074e-05;0.07412301004;-0.03833181784
14.63991392;-0.003909938969;0.07067339122;-0.04386475682
14.65498992;0.00136550935;0.07970450819;-0.04086251929
14.67006492;0.00876270514;0.07764668018;-0.03910669684
14.68514092;0.008761319332;0.05461228639;-0.03521534801
14.70021692;0.01727609336;0.04963674769;-0.01592893712
14.71529292;0.01446468011;0.03967933357;0.001956772991
14.73036892;0.01569878869;0.02340741828;0.02973034605
14.74544392;0.0005913905916;0.06602504104;0.04613816366
14.76051992;-0.03715124726;0.07326970994;0.03142467141
14.77559592;-0.0346458666;0.04258072749;0.01790853404
14.79067192;-0.02432451583;0.03750474006;0.00849266164
14.80574792;-0.01231728308;0.04608827829;0.009921018034
14.82082292;0.01486300211;0.03183302656;0.01413174532
14.83589892;0.01964430325;0.03726899624;0.01335145906
14.85097492;0.02281799167;0.04774587601;-0.008284859359
14.86605092;0.03464145958;0.041832041;-0.01366588287
14.88112692;0.03443792835;0.04232677817;-0.03084355406
14.89620292;0.03773160651;0.04077011719;-0.04336473346
14.91127792;0.05138616636;0.03167595342;-0.05480168015
14.92635392;0.03254826739;0.04174359515;-0.06138915196
14.94142992;0.0226970762;0.05073321611;-0.06553024799
14.95650592;0.02865177765;0.0365415737;-0.07068881392
14.97158192;0.03435626626;0.02779548429;-0.08329435438
14.98665692;0.04369983077;0.03540299833;-0.07292158902
15.00173292;0.04728736356;0.04923184961;-0.07050073147
15.01680892;0.04323105887;0.0579829514;-0.07684288174
15.03188492;0.04578502849;0.07147052884;-0.08882231265
15.04696092;0.05965481699;0.08477706462;-0.1071085483
15.06203592;0.07007491589;0.06869723648;-0.1113515571
15.07711192;0.08010401577;0.04524914175;-0.08603595197
15.0921875;0.08684740216;0.04216093943;-0.07297767699
15.1072635;0.0848621577;0.05236757547;-0.06508541852
15.1223395;0.07627949119;0.06352938712;-0.07653661817
15.1374155;0.0589498356;0.05564069748;-0.09420269728
15.1524905;0.06132084504;0.03535673395;-0.09926722944
15.1675665;0.08157304674;0.02626896091;-0.09780006111
15.1826425;0.09104712307;0.03050919995;-0.08727104962
15.1977185;0.123695761;0.03269986808;-0.07083328068
15.2127945;0.1325419843;0.0431160219;-0.07389911264
15.2278695;0.1272918433;0.04015956819;-0.06526546925
15.2429455;0.1460633576;0.008076496422;-0.04779730737
15.2580215;0.1619568914;0.0155190872;-0.01858535409
15.2730975;0.1722366959;0.03802732751;0.01545703411
15.2881735;0.1590690464;0.05962367356;0.02018111013
15.3032495;0.10939724;0.04994719848;0.02202131972
15.3183245;0.07728520036;0.02813094854;0.0261004176
15.3334005;0.05270715058;0.01902879402;0.01663820632
15.3484765;0.03115445562;0.01013010833;0.009520907886
15.3635525;0.01831612177;0.003134612925;0.008081594482
15.3786285;-0.01026174892;-0.01416503917;-0.01278472319
15.3937035;-0.01529885177;-0.02390501834;-0.01565241627
15.4087795;-0.01333482191;-0.01690833829;-0.01427187677
15.4238555;-0.008868883364;-0.01914897561;-0.02630332112
15.4389315;0.001727876486;-0.01839734055;-0.02493596449
15.4540075;0.008746105246;-0.00874045305;-0.03999214619
15.4690835;0.01073833089;-0.009894541465;-0.04947371781
15.4841585;0.02734792233;-0.03525277227;-0.04477213323
15.4992345;0.05404118076;-0.05800636485;-0.04375825077
15.5143105;0.08462385833;-0.05069758371;-0.02916092984
15.5293865;0.06942971051;-0.01173941139;-0.01518834755
15.5444625;0.0633931607;0.01468544174;-0.05036243796
15.5595385;0.0606171228;0.0213929303;-0.05833077803
15.5746135;0.04693912715;-0.002424784005;-0.06938609481
15.5896895;0.06079974025;-0.02228233218;-0.07051046193
15.6047655;0.08172380179;-0.02246042714;-0.08383134007
15.6198415;0.04964412004;0.01030808035;-0.06500155479
15.6349175;0.0448445715;-0.01203344483;-0.05604694039
15.6499925;0.02593437955;-0.03212983906;-0.05316934362
15.6650685;0.01951886714;-0.04888585955;-0.05084723234
15.6801445;0.0217896197;-0.03631198406;-0.04123456031
15.6952205;0.001205515582;-0.02048055455;-0.05183873326
15.7102965;0.006618825253;-0.04428493232;-0.04586276039
15.7253715;0.01739594527;-0.04324160516;-0.04889146984
15.7404475;0.04184890166;-0.04020724446;-0.03938427567
15.7555235;0.07153116167;-0.04432661831;-0.03206324577
15.7705995;0.07709627599;-0.04529390484;-0.0250174664
15.7856755;0.09191484749;-0.04438170046;-0.008046531118
15.8007515;0.07950819284;-0.01832073554;-0.01359235682
15.8158265;0.07081776857;-0.005544221029;-0.01784089766
15.8309025;0.068270877;-0.00179572124;-0.03010459058
15.8459785;0.06283096969;-0.02332266048;-0.03208409995
15.8610545;0.05696612969;-0.05299323052;-0.01923053525
15.8761305;0.05739702657;-0.05818159878;-0.009904144332
15.8912065;0.06591682136;-0.04780277237;0.003861977719
15.9062815;0.04738599434;-0.04916127399;0.01895259693
15.9213575;0.0117601119;-0.05861733481;0.02594597451
15.9364335;-0.001799905207;-0.07636597753;0.04270924255
15.9515095;-0.02294534072;-0.08744700253;0.04470688105
15.9665855;-0.02220611088;-0.09056036174;0.0496307984
15.9816605;-0.005401128903;-0.07667115331;0.03665411845
15.9967365;-0.002973124851;-0.06849418581;0.01874968782
16.0118125;-0.01892663166;-0.06589137763;-0.001066465396
16.0268885;-0.02385237068;-0.06733982265;-0.009521901608
16.0419645;-0.007698765956;-0.07015805691;-0.0003763572313
16.0570405;-0.0004712127848;-0.05974376202;-0.00345976511
16.0721155;0.01381841488;-0.06780490279;-0.01731127873
16.08719542;0.02520002984;-0.09251466393;-0.02242321149
16.10227142;0.0334889479;-0.08825708181;-0.02750862576
16.11734742;0.0661707297;-0.06522154063;-0.02128934488
16.13242342;0.08182112873;-0.03624555469;-0.04421760142
16.14749842;0.09617329389;-0.03943544254;-0.06130411848
16.16257442;0.1081471965;-0.05070959032;-0.08303841949
16.17765042;0.1232510507;-0.03605767712;-0.09020206332
16.19272642;0.1390434057;-0.02160976641;-0.08784173429
16.20780242;0.1391229481;-0.006396066397;-0.09097406268
16.22287842;0.1285276413;-0.01956145093;-0.1056718081
16.23795342;0.09930875897;-0.04847459123;-0.125593856
16.25302942;0.09911755472;-0.06774637103;-0.1048082039
16.26810542;0.100673385;-0.05054672807;-0.1028625444
16.28318142;0.08652792871;-0.04062591866;-0.1115907431
16.29825742;0.07162567973;-0.03202523664;-0.1028896645
16.31333342;0.07143045962;-0.03919381648;-0.1057445332
16.32840842;0.0654200092;-0.05502903089;-0.07912158221
16.34348442;0.0668240115;-0.07521250844;-0.03913842514
16.35856042;0.07365981489;-0.0602183789;-0.01598809659
16.37363642;0.06948298961;-0.04275736958;-0.02027662471
16.38871242;0.05295166001;-0.02976915985;-0.03271802887
16.40378842;0.04298665375;-0.06307157874;-0.05394266546
16.41886342;0.02817761526;-0.09704844654;-0.04076294601
16.43393942;0.04108152539;-0.0997235775;-0.01068932377
16.44901542;0.03227305785;-0.08382728696;0.005902698264
16.46409142;0.0211516954;-0.08092443645;0.01436862163
16.47916742;-0.000629766495;-0.07661357522;0.01345142908
16.49424242;-0.008624798618;-0.06618245691;0.02060691081
16.50931842;-0.004787451588;-0.09705457836;0.02725601196
16.52439442;-0.001098259352;-0.1064572781;0.03081780113
16.53947042;0.01166387461;-0.112702921;0.03744454682
16.55454642;-0.007581073325;-0.09464615583;0.03165571019
16.56962242;0.008545239456;-0.07243059576;0.02381985076
16.58469742;0.01581545547;-0.06455885619;-0.009402506053
16.59977342;0.04185983911;-0.08135966957;-0.01568516903
16.61484942;0.05534916371;-0.1020562127;-0.001744115725
16.62992542;0.06430455297;-0.09126564115;0.0286349114
16.64500142;0.0687571913;-0.09278339148;0.03669246659
16.66007642;0.0364093706;-0.06786606461;0.01652194932
16.67515242;0.03639350832;-0.04572049528;-0.01093091816
16.69022842;0.04583959281;0.005905459635;-0.03046514094
16.70530442;0.07662922144;0.007049046457;-0.03619102389
16.72038042;0.0780614689;-0.04397206008;-0.04807884246
16.73545642;0.08383661509;-0.07397349179;-0.02247502282
16.75053142;0.07289549708;-0.08117834479;-0.005579988007
16.76560742;0.06037453935;-0.04850817844;0.02323291451
16.78068342;0.05183910951;-0.05042991787;0.0048829359
16.79575942;0.03701850027;-0.04975432158;-0.02179374546
16.81083542;0.03145847097;-0.02168219723;-0.04015856236
16.82591142;0.00853644032;-0.05231721699;-0.05923371017
16.84098642;0.0146246925;-0.1037428603;-0.05724140257
16.85606242;0.03232139722;-0.08972956985;-0.03349479288
16.87113842;0.05037148297;-0.06861925125;-0.006450311746
16.88621442;0.03960702941;-0.07733945549;0.02825823426
16.90129042;0.0408536531;-0.06584206223;0.02565499581
16.91636642;-0.002046771115;-0.03475869074;0.02368356287
16.93144142;-0.02773791179;-0.02676215395;0.02911306918
16.94651742;-0.01995077729;-0.06446881592;0.01942719519
16.96159342;0.009905921295;-0.06483047456;0.03246949613
16.97666942;0.03748714924;-0.06487502903;0.04852114618
16.99174542;0.04328146577;-0.05028467253;0.04853310436
17.00682142;0.04395125434;-0.04103262722;0.02318169363
17.02189642;0.01417977549;-0.01659892499;-0.002048295457
17.03697242;0.02095338702;-0.05080273002;-0.004340206739
17.05204842;0.04365478829;-0.08661548793;0.0094035035
17.06712442;0.06102118641;-0.06508402526;0.03331230581
17.08220042;0.07376440614;-0.02817713842;0.04913627729
17.09727267;0.06566637754;-0.005768897943;0.03824593127
17.11234767;0.03998849168;-0.008294321597;0.008792536333
17.12742367;0.03075767308;-0.02321778238;0.00187669741
17.14249967;0.04573822394;-0.04085003957;0.005808055867
17.15757567;0.05796699971;-0.0473321788;0.01262571011
17.17265167;0.04347641021;-0.03687352687;0.000855866354
17.18772667;0.0165018905;-0.02946817502;-0.01942533255
17.20280267;-0.001320249867;-0.04916225001;-0.03981263191
17.21787867;-0.009410526603;-0.03994395211;-0.05250019953
17.23295467;-0.004003853071;-0.04225526378;-0.05034168437
17.24803067;-0.0005546436878;-0.04673714563;-0.04851002619
17.26310667;0.006761858705;-0.06755294651;-0.03386636823
17.27818167;0.02202649973;-0.03207066283;-0.02008372918
17.29325767;0.04009523988;-0.03431079537;-0.005638701841
17.30833367;0.01402572542;-0.04389553145;-0.01126344316
17.32340967;0.025084503;-0.05560038984;-0.008310530335
17.33848567;0.02081211284;-0.033931043;-0.004098397214
17.35356167;0.01499195304;-0.04114405066;0.01008246839
17.36863667;0.02177360654;-0.06126060337;0.009879600257
17.38371267;0.0600813143;-0.06983545423;0.02260844409
17.39878867;0.08812394738;-0.06569960713;0.04732948169
17.41386467;0.07173492759;-0.03687412664;0.05614531785
17.42894067;0.043931555;-0.02454907075;0.05554090813
17.44401667;0.03456415236;0.01158256829;0.03939203173
17.45909167;0.01347670984;0.004277784377;0.01670216583
17.47416767;0.001764714136;-0.04158005491;-0.004852602258
17.48924367;0.02263256162;-0.06996048242;-0.004074645694
17.50431967;0.03160581738;-0.05753976479;0.006527132355
17.51939567;0.02761209756;-0.05454136804;0.023090031
17.53447167;-0.0311189536;-0.05638752133;0.01363967266
17.54954667;-0.06585282087;-0.060148485;0.007160939276
17.56462267;-0.06427356601;-0.09672886878;0.008478404954
17.57969867;-0.07940527797;-0.05357267708;0.01531189866
17.59477467;-0.05168154091;-0.05891506374;0.0329027921
17.60985067;-0.05748543143;-0.05334890261;0.0313597545
17.62492667;-0.04316401854;-0.1321044415;0.04679995775
17.64000167;-0.01677413657;-0.1270229816;0.09786493331
17.65507767;0.01311859023;-0.0202739425;0.103768602
17.67015367;0.06676715612;0.01566903666;0.06382999569
17.68522967;0.01503126044;-0.01225101203;-0.01385414135
17.70030567;0.02555414662;-0.04196082056;-0.01885715872
17.71538167;0.02670847811;-0.03886324912;-0.02162571996
17.73045667;0.0002772435546;-0.0571353361;-0.008184893057
17.74553267;-0.005729516037;-0.05977879092;-0.01513840631
17.76060867;-0.02059204318;-0.0400185734;-0.04231401905
17.77568467;-0.07409593463;-0.09720369428;-0.03709056973
17.79076067;-0.06156566739;-0.09881906211;-0.009796697646
17.80583667;0.00542294886;-0.05523297191;-0.02006664686
17.82091167;-0.001275604474;-0.006349294446;-0.030646706
17.83598767;-0.02773603797;0.003369565122;-0.05527111143
17.85106367;-0.04457715526;-0.05829207227;-0.0685761869
17.86613967;-0.008517421782;-0.1161481813;-0.02536400035
17.88121567;0.04396003857;-0.06869830191;0.02972027101
17.89629167;0.05684063211;0.001717074774;0.0156424772
17.91136667;0.006165597588;-0.0007149968296;-0.04956233874
17.92644267;-0.03554669395;-0.07835333049;-0.04784779251
17.94151867;-0.02709181979;-0.09001897275;-0.01591731422
17.95659467;0.0113093229;-0.06695688516;-0.006807790603
17.97167067;0.02793780155;-0.05280182138;0.01644199714
17.98674667;0.02900200151;-0.0499128215;0.01617488079
18.00182167;-0.01986017451;-0.06680527329;-0.01828603633
18.01689767;-0.04464169964;-0.09586051106;-0.00644371612
18.03197367;-0.04868439957;-0.07920669764;-0.002679802477
18.04704967;-0.03338586912;-0.05997280777;-0.009154746309
18.06212567;-0.02445503324;-0.06122688204;-0.01974743232
18.07720167;-0.05624199286;-0.05457697064;-0.01769786328
18.09228042;-0.0379123725;-0.05963595957;0.004297656007
18.10735642;-0.02068012021;-0.02354746312;0.02027102932
18.12243242;-0.00460563181;-0.02831998467;0.01209387369
18.13750842;0.0009898403659;-0.04922182485;-0.007946291938
18.15258442;0.00609536469;-0.05266452208;0.0005740420893
18.16766042;0.01086162403;-0.05487281457;0.004649743438
18.18273542;-0.02612185478;-0.03681721538;-0.003897835035
18.19781142;-0.05748893693;-0.01316771284;-0.011549199
18.21288742;-0.07408203185;-0.04548517242;-0.04573619738
18.22796342;-0.09934264421;-0.1132794023;-0.08589693159
18.24303942;-0.08840166032;-0.1886709332;-0.09596974403
18.25811542;-0.04935998097;-0.1283129007;-0.06222753227
18.27319042;-0.001850037719;-0.01433650125;-0.06916564703
18.28826642;-0.08215393126;0.0021255631;-0.09731818736
18.30334242;-0.1197662354;-0.01098840684;-0.1028686985
18.31841842;-0.1019430235;-0.0266065523;-0.08626707643
18.33349442;-0.06218831986;-0.1207091808;-0.05460118502
18.34857042;0.02134785242;-0.1308851242;0.01086011063
18.36364542;0.0982613489;-0.03791390359;0.04630009085
18.37872142;0.08241530508;0.03603029624;0.01308686845
18.39379742;0.01253154315;0.04924484342;-0.0459246859
18.40887342;-0.01269285288;0.02767004445;-0.08756028116
18.42394942;-0.02739934996;-0.01132700872;-0.09039126337
18.43902542;-0.0300177075;-0.07106665522;-0.0755167082
18.45410042;-0.004501395859;-0.07681997865;-0.05732930452
18.46917642;-0.03654614836;-0.04554514587;-0.07224886864
18.48425242;-0.1176522002;-0.03289820626;-0.1187753081
18.49932842;-0.1305053979;-0.0649966076;-0.1170461699
18.51440442;-0.09202818573;-0.05208034813;-0.08431296796
18.52948042;-0.04397410899;-0.01537080389;-0.05260723457
18.54455542;-0.01899051666;-0.006217188202;-0.03381896019
18.55963142;-0.001236030133;-0.04326563329;-0.01563218981
18.57470742;0.01835285127;-0.02068389207;0.009807390161
18.58978342;0.04646890983;-0.02596201189;0.01828316599
18.60485942;0.03170714527;-0.05992017314;0.002445593476
18.61993542;0.01573266275;-0.03748498857;0.01647770405
18.63501042;0.004053838551;0.03167029843;-0.00833871495
18.65008642;-0.05267548561;0.02702814341;-0.0545908995
18.66516242;-0.1107757166;-0.03286952525;-0.07829714566
18.68023842;-0.1106320247;-0.07440491021;-0.06953377277
18.69531442;-0.05630290508;-0.08983512968;-0.02518536337
18.71038942;-0.0192692522;-0.04638219625;0.03189736232
18.72546542;0.0002389352303;-0.01137441304;0.05522239208
18.74054142;-0.0003721859539;0.001516878605;0.05210059881
18.75561742;-0.02529489994;-0.0153936306;0.04453717545
18.77069342;-0.03860963881;-0.04316560552;0.06049829721
18.78576942;-0.04565709829;-0.06139962375;0.09303919971
18.80084542;-0.06219883636;-0.07287550718;0.09440103918
18.81592042;-0.06891239434;-0.09350488335;0.08908936381
18.83099642;-0.06403002143;-0.07672457397;0.1006980836
18.84607242;-0.07530908287;-0.05115910992;0.1077963933
18.86114842;-0.0592064634;-0.07690215111;0.09326717257
18.87622442;-0.01172623131;-0.08939149231;0.1061209291
18.89129942;0.01423319709;-0.04793646559;0.112766847
18.90637542;0.01557386387;-0.008480994031;0.1161553189
18.92145142;0.02137708478;-0.01729125716;0.1203415841
18.93652742;0.01070455182;-0.0452751182;0.1143230349
18.95160342;0.02720017172;-0.0300034862;0.1271943599
18.96667942;0.04468545318;0.002215913497;0.1795801967
18.98175442;0.02341829054;0.02404699288;0.1743216068
18.99683042;-0.01283872966;-0.008210114203;0.1411360204
19.01190642;-0.07466161251;-0.01375002228;0.1246369481
19.02698242;-0.05653485283;-0.1034498662;0.1466449499
19.04205842;-0.05857551843;-0.03306859732;0.1815494597
19.05713442;-0.07296650857;-0.006375545636;0.1297863722
19.07220942;-0.15796794;-0.06264014542;0.05411399156
19.0872855;-0.2055576146;-0.1163411289;0.01544989087
19.1023615;-0.2252130657;-0.08409945667;0.04837079719
19.1174375;-0.252328366;-0.1330072284;0.02923236601
19.1325135;-0.2395313382;-0.2407291532;0.06669212133
19.1475895;-0.156380415;-0.2181016207;0.1363991946
19.1626645;-0.08671467006;-0.04533512145;0.168903932
19.1777405;-0.1369072795;0.01683595963;0.1031718329
19.1928165;-0.2103516757;-0.06055070832;0.01559671108
19.2078925;-0.2691538036;-0.1057461053;-0.0408263281
19.2229685;-0.234072417;-0.1458920687;-0.04549446329
19.2380445;-0.212000668;-0.1657557786;0.005213987548
19.2531205;-0.2023240626;-0.160590589;0.01729648374
19.2681955;-0.2290517092;-0.1506099552;-0.02520799637
19.2832715;-0.2395730168;-0.137517646;-0.02418901213
19.2983475;-0.2413445413;-0.1036586165;0.0191909112
19.3134235;-0.2213463187;-0.1241726801;0.04760843888
19.3284995;-0.2004717439;-0.1367584616;0.05317047238
19.3435745;-0.1860774308;-0.1326755732;0.03250944242
19.3586505;-0.199860394;-0.1051710248;0.01069725305
19.3737265;-0.2053142786;-0.09954882413;-0.01243123598
19.3888025;-0.2015322298;-0.1247399151;-0.03913540766
19.4038785;-0.1976165473;-0.126318723;-0.03903033584
19.4189545;-0.1882225871;-0.1268687546;-0.009753691033
19.4340295;-0.1858659536;-0.1294197887;0.007921709679
19.4491055;-0.1842314899;-0.1758596301;-0.006341181695
19.4641815;-0.1614957303;-0.1486473083;0.05501450598
19.4792575;-0.1465446055;-0.1120985448;0.1004381627
19.4943335;-0.1595602781;-0.09572729468;0.08891200274
19.5094095;-0.1653929651;-0.09684865177;0.05605381355
19.5244845;-0.1573103666;-0.06908929348;0.03076290525
19.5395605;-0.12499699;-0.06158852577;0.009415926412
19.5546365;-0.06963999569;-0.06766665727;-0.002822363749
19.5697125;-0.03796935081;-0.05866881832;-0.01447021402
19.5847885;-0.00541965384;-0.03164104745;-0.01133917645
19.5998645;0.01073973719;-0.03151888028;-0.007572381292
19.6149395;0.004227242433;-0.03125442937;-0.01684071496
19.6300155;-0.01555815898;-0.003755668178;-0.02565479465
19.6450915;0.01064088009;0.004313482903;-0.02868624963
19.6601675;-0.04306282103;-0.01194310375;-0.03479345143
19.6752435;-0.0168911349;-0.0661842376;-0.02253198996
19.6903195;-0.02992924862;-0.08761362731;-0.03843235597
19.7053945;-0.04127752036;-0.02007893473;-0.0167238228
19.7204705;0.03484679759;0.001355637796;0.02085741609
19.7355465;-0.0336185433;-0.01566142775;-0.003453249112
19.7506225;-0.04374929518;-0.05462201685;0.007470584475
19.7656985;-0.04745882004;-0.0331280306;0.0290619228
19.7807745;0.01752423495;0.008723365143;0.03426415846
19.7958495;-0.05723708495;-0.002561246045;0.005839709193
19.8109255;-0.08667042106;-0.04146656394;-0.005626492668
19.8260015;-0.06881792098;-0.050103724;0.02918395214
19.8410775;-0.02184258029;-0.03729401901;0.06282643974
19.8561535;-0.03511284292;-0.08579790592;0.0865323022
19.8712295;-0.06531888247;-0.03673411161;0.08186750859
19.8863045;-0.06788730621;-0.005082287826;0.04562854022
19.9013805;-0.04359261692;-0.0213483423;0.02262149379
19.9164565;-0.001030423562;-0.06714311987;0.01938620582
19.9315325;0.002992377616;-0.06330256164;0.02854363061
19.9466085;0.01152263116;-0.03139394149;0.03402648494
19.9616845;0.003301517107;-0.02676901594;0.01677800715
19.9767595;-0.003474097466;-0.05387306958;0.004249964841
19.9918355;0.01208681706;-0.04902976751;0.01127513498
20.0069115;0.02587239444;-0.02747162431;0.02394436672
20.0219875;0.02537389286;-0.0208546482;0.02416869067
20.0370635;0.009581079707;-0.005113501102;0.008694658987
20.0521385;-0.01356160827;0.0003112200648;-0.01150240749
20.0672145;-0.01548067201;-0.005264495499;-0.009020117112
20.0822905;-0.01585257612;-0.01155584585;-0.008121602237
20.09736604;-0.005806600209;-0.009264994413;-0.006427299697
20.11244204;-0.001358801965;-0.005308931693;0.008391919546
20.12751804;0.01080546342;-0.0213511344;0.0353574492
20.14259404;0.0003388886107;-0.02073954418;0.05766576529
20.15766904;-0.02081859484;-0.002297420055;0.06348504126
20.17274504;-0.03457867727;-0.001166990958;0.05046083033
20.18782104;-0.02166936733;-0.03267007321;0.01353409328
20.20289704;0.01319843158;-0.03607171029;0.009956281632
20.21797304;0.03445179015;-0.06011153013;0.004528492689
20.23304904;0.0311807543;-0.04606290162;0.005963157862
20.24812404;0.009255216457;-0.03004984371;0.03895999119
20.26320004;-0.02874781564;-0.03002519533;0.05484597385
20.27827604;-0.07370729744;-0.03161110729;0.06458355486
20.29335204;-0.09977479279;-0.01476946194;0.0565482825
20.30842804;-0.08750135452;-0.01100547239;0.03546645865
20.32350304;-0.04378347099;-0.01317481603;0.01240601949
20.33857904;-0.01152113732;-0.0136507228;0.007570517715
20.35365504;0.005442858674;-0.06123501435;0.02656954899
20.36873104;0.02161585167;-0.08056025952;0.07519692928
20.38380704;0.02814208902;-0.08071837574;0.1026154086
20.39888304;-0.03060431406;-0.03385260329;0.07806426287
20.41395904;-0.08034861088;-0.04658462107;0.02299050428
20.42903404;-0.09798661619;-0.05161889642;-0.004592017271
20.44411004;-0.05083186552;-0.06386967748;-0.005616085604
20.45918604;-0.001651802799;-0.06213516369;0.01176290493
20.47426204;0.01534820907;-0.0435943529;0.02629899606
20.48933804;-0.00510506006;-0.01144417468;0.0344921872
20.50441404;-0.04037463292;-0.009900873527;0.05015104264
20.51948904;-0.05993821472;-0.0408966057;0.06376032531
20.53456504;-0.0547664836;-0.08350045234;0.06133017316
20.54964104;-0.03180220351;-0.05704075098;0.1021815836
20.56471704;-0.02381958254;-0.0438824892;0.05022917315
20.57979304;-0.03602617979;-0.03166203946;0.02340980992
20.59486904;-0.02914287895;-0.0225438904;0.01810813509
20.60994404;-0.02424531616;-0.007424178533;0.02437797375
20.62502004;-0.01228344068;-0.03325654566;0.02401809767
20.64009604;0.001670724945;-0.05052075535;0.02212112769
20.65517204;0.03277666867;-0.02719924226;0.009522943757
20.67024804;0.06710005552;-0.0004787743092;0.009295118973
20.68532404;0.0796700269;0.0003388626501;0.004235707223
20.70039904;0.09135837108;-0.01479401812;0.01989509538
20.71547504;0.08892501146;-0.0197988376;0.04253876209
20.73055104;0.08327195793;-0.01326814666;0.06044114754
20.74562704;0.06215927377;-0.01523575652;0.05813730881
20.76070304;0.05099610239;-0.0138013782;0.0006385939196
20.77577904;0.008739925921;-0.01053509116;-0.00942737516
20.79085404;0.0003796672681;-0.02370932885;0.004610145465
20.80593004;0.005201469641;-0.01823604852;0.01940980181
20.82100604;0.04987120256;-0.004137805663;0.02203914151
20.83608204;0.07540896535;0.02302926034;0.02306612208
20.85115804;0.1045115367;0.03292528912;0.007044771686
20.86623404;0.1208573803;0.02986728586;-0.00198158389
20.88130904;0.1319632977;0.02665205114;-0.008795015514
20.89638504;0.1391676515;0.04440781847;-0.01737562194
20.91146104;0.1474024206;0.05737557635;-0.03828970715
20.92653704;0.1435106844;0.02276464365;-0.07046313584
20.94161304;0.1132361367;-0.00829047896;-0.06845644116
20.95668904;0.08953552693;-0.02277750522;-0.04734393954
20.97176404;0.0312949419;-0.01451147534;-0.034065485
20.98684004;-0.02610541694;-0.01606609114;-0.04134318978
21.00191604;-0.08024907857;-0.01657741703;-0.03670662642
21.01699204;-0.09894002974;-0.01551415585;-0.01286033355
21.03206804;-0.06628055871;-0.05159603059;0.009282296523
21.04714404;-0.06485485286;-0.08477577567;0.02724032104
21.06221904;-0.07597648352;-0.1205934286;0.04168877006
21.07729504;-0.05208766088;-0.07443338633;0.08692841977
21.09236779;-0.02533512376;0.03236072883;0.05687163398
21.10744379;0.02963587642;0.05548479035;0.02255669981
21.12251979;0.1585160941;0.07712803781;0.06619872153
21.13759579;0.2453981042;0.1293548793;0.1133128181
21.15267079;0.2549147904;0.09745928645;0.1186885163
21.16774679;0.1629187912;0.01875110343;0.1153520048
21.18282279;0.07337533683;0.005431302823;0.09117263556
21.19789879;-0.005276237149;0.01467326004;0.06679262221
21.21297479;-0.06964444369;-0.0200275071;0.03922864422
21.22805079;-0.07485976815;-0.03415820003;0.03596542776
21.24312579;-0.06343960017;-0.02733092196;0.03404848278
21.25820179;-0.05688483641;-0.02661050111;0.02839541808
21.27327779;-0.04496803135;-0.02594053186;0.03356719017
21.28835379;-0.03080899641;-0.02245233394;0.0297692176
21.30342979;-0.005814696196;-0.01600615308;0.02525649033
21.31850579;0.003556232434;-0.01510352362;0.01250502747
21.33358079;-0.01471342519;-0.01199178584;0.001104729716
21.34865679;-0.02180007659;-0.01737613976;0.005109508522
21.36373279;0.0006927164504;-0.02066860534;0.01696883142
21.37880879;0.01078216545;-0.01544576697;0.0105412947
21.39388479;-0.005445858929;-0.0006158920005;-0.001354572363
21.40896079;-0.00834985543;-0.008504044265;-0.008588703349
21.42403679;-0.005757001694;-0.02179455012;-0.01239595748
21.43911179;-0.01116028894;-0.009658791125;0.004133217037
21.45418779;-0.03194059432;0.004785355181;-0.00371833751
21.46926379;-0.06543558836;-0.01086650044;-0.02585794777
21.48433979;-0.0607393682;-0.03816976026;-0.02730670944
21.49941579;-0.02448347583;-0.03828458861;-0.01463731378
21.51449179;-0.01520309504;-0.03134830296;-0.00932508707
21.52956679;-0.0285148304;-0.01750839502;-0.01106683351
21.54464279;-0.04130306095;0.0007214751095;-0.02948605642
21.55971879;-0.04178994521;0.003442729823;-0.02660535648
21.57479479;-0.02096959576;-0.01784255728;-0.02182932757
21.58987079;-0.0180785004;-0.01779000089;-0.007719508838
21.60494679;-0.0191842448;-0.005050236359;-0.01056269929
21.62002179;-0.03811085969;-0.009251723997;-0.02023292147
21.63509779;-0.03267177194;-0.01361819729;-0.004268807825
21.65017379;-0.01572120748;-0.01592932269;0.01485266536
21.66524979;-0.03053290956;-0.009723093361;0.0145346839
21.68032579;-0.03218834475;-0.01619738527;0.005555078853
21.69540179;-0.02369197458;-0.01182646863;0.002529115416
21.71047679;-0.01239981968;-0.02626332827;0.003784982255
21.72555279;-0.01322939433;-0.02275967225;0.01501207054
21.74062879;-0.02735444717;-0.003492369317;0.01586100645
21.75570479;-0.05040049925;-0.004010952078;-0.005242195446
21.77078079;-0.05768028274;-0.02867199853;-0.0110323159
21.78585679;-0.01708891056;-0.03270189464;0.01388528384
21.80093279;-0.0005053759087;-0.006323641166;0.02574847825
21.81600779;-0.005991689861;0.003815920092;0.01845035329
21.83108379;-0.007193372119;-0.004730804823;0.006798488088
21.84615979;-0.01783802733;-0.0005765398964;0.004965700675
21.86123579;-0.007782473229;-0.007475851104;0.01332565676
21.87631179;0.006532283034;-0.01216170378;0.0225886777
21.89138779;0.02074211091;-0.009410126135;0.01991326734
21.90646279;0.01574921608;0.007933976129;0.004458144307
21.92153879;0.01134940889;-0.001322904602;-0.009715998545
21.93661479;0.02305238321;-0.01907290146;0.01085407473
21.95169079;0.04295428842;-0.005299133249;0.03534966707
21.96676679;0.04635941237;0.02127708495;0.02962626703
21.98184279;-0.002384597436;0.02063288167;0.002589202486
21.99691779;-0.03482548147;-0.008239052258;-0.01743914746
22.01199379;-0.01279898547;-0.02688432112;-0.01152835973
22.02706979;0.01468696725;-0.01585590281;0.02300245315
22.04214579;0.04593534768;0.005688931793;0.03633192182
22.05722179;-0.0009383846773;0.01136030722;0.006526763551
22.07229779;-0.05044379085;-0.01925510727;-0.01686496846
22.087374;-0.02371310815;-0.03049657494;-0.002038084436
22.102449;0.006674549542;-0.01201180741;0.01519871689
22.117525;0.02579811215;0.005677333102;0.0335052833
22.132601;0.02935692668;0.01212743949;0.02494627796
22.147677;0.02676620334;0.02184424922;0.01047545858
22.162753;0.02134076878;-0.006989073474;0.01320937369
22.177829;0.03967266902;-0.01748308539;0.05015288666
22.192904;0.05568178371;0.001404547133;0.04872840643
22.20798;0.04839004949;0.004758532159;0.0309651196
22.223056;0.01588440873;0.00058656279;0.02175869234
22.238132;0.002574186306;0.01473286189;0.03328649327
22.253208;-0.004213103093;0.03057901561;0.0305182226
22.268284;-0.02343446761;0.003371631727;0.01059990749
22.283359;-0.02308709547;-0.01479512919;-0.00784099102
22.298435;0.001426811679;-0.004732294008;0.002844229341
22.313511;0.03123579733;-0.004768860526;0.01557432022
22.328587;0.05222470313;0.01138720568;0.02151476778
22.343663;0.02273331396;0.01655404083;0.003821014892
22.358739;-0.01180137508;0.008285769261;-0.002107386012
22.373814;-0.001827304834;-0.004157317802;0.005147597287
22.38889;0.00473818602;0.01603423804;0.007226727437
22.403966;0.01071983762;0.006639946252;-0.006304222625
22.419042;0.03164307028;-0.004909751937;-0.01335963141
22.434118;0.06718768924;0.007272527553;-0.01619778015
22.449194;0.07965607196;0.02499426901;-0.02468367852
22.46427;0.08581038564;0.02235895023;-0.03005264886
22.479345;0.0777708292;0.01657642797;-0.0554458946
22.494421;0.08714515716;0.02146466076;-0.07273992896
22.509497;0.0989144668;0.02001802996;-0.07610110193
22.524573;0.1135125756;0.01895806566;-0.06135303527
22.539649;0.1150181293;0.04301346466;-0.05081225187
22.554725;0.1057096049;0.06563036889;-0.06293210387
22.5698;0.1032365933;0.05709760264;-0.08181471378
22.584876;0.09402828664;0.03671925887;-0.08728740364
22.599952;0.1199312359;0.02110109478;-0.07266283035
22.615028;0.14139992;0.01989785954;-0.05693640187
22.630104;0.165751338;0.03532901406;-0.05401491374
22.64518;0.1791322678;0.0576778017;-0.0562168397
22.660255;0.1706230193;0.07264916599;-0.02970035747
22.675331;0.1714493334;0.03356850147;0.002865840215
22.690407;0.1854695529;0.009488197044;0.02514344826
22.705483;0.1679247618;0.04429096729;0.06824117899
22.720559;0.1348417401;0.03924683481;0.04275216907
22.735635;0.1143664643;0.037349049;0.0307385046
22.750711;0.09560529888;0.03866518661;0.04353286326
22.765786;0.07678198814;0.05768534541;0.04196061566
22.780862;0.08320623636;0.04167469591;0.0421082601
22.795938;0.1027643234;0.05070122704;0.0649106577
22.811014;0.1052019149;0.07273914665;0.05612648278
22.82609;0.07279957086;0.04210238159;0.03928196803
22.841166;0.07000175118;0.01522257924;0.04359456897
22.856241;0.07933903486;0.007451713085;0.0443219617
22.871317;0.09593239427;0.02327142097;0.05599885806
22.886393;0.1071320921;0.04118043929;0.06369256228
22.901469;0.09132307768;0.04708830267;0.04602582753
22.916545;0.06051919237;0.03599267453;0.02337920666
22.931621;0.04198066145;0.00222432334;-0.0003346437588
22.946697;0.06360444427;-0.003174729645;0.006581401918
22.961772;0.08553213626;0.00741056446;0.01896368712
22.976848;0.1174248606;0.03183740005;0.03290437162
22.991924;0.132153213;0.05078259856;0.03221407905
23.007;0.1002410278;0.04844147339;0.01324165985
23.022076;0.08143875003;0.05490734428;0.01921711676
23.037152;0.09390722215;0.01844188198;0.03940326348
23.052228;0.1143752113;0.00316252932;0.05213876814
23.067303;0.146760717;0.03237318993;0.07407894731
23.082379;0.1508309394;0.06588420272;0.06506051123
23.0974545;0.1338628978;0.07152481377;0.04076334089
23.1125305;0.1242856309;0.03842651099;0.03236612678
23.1276065;0.1164600849;0.02744891308;0.04224026948
23.1426825;0.101229541;0.0376575999;0.04644243419
23.1577575;0.09620732814;0.05005218461;0.04420785606
23.1728335;0.08506412804;0.0499256812;0.0291311685
23.1879095;0.06156918034;0.03469489515;0.02212231606
23.2029855;0.03035307676;0.04174092039;0.02150762454
23.2180615;0.02761941589;0.0239925161;0.03148087114
23.2331375;0.02513255551;0.05340979248;0.02071078122
23.2482135;0.001809124369;0.06114840508;-0.0005638794973
23.2632885;-0.00462987693;0.02109005488;-0.002999565098
23.2783645;-0.0129687041;-0.003112668172;0.01662768237
23.2934405;-0.005652467255;-7.156282663e-06;0.05219180137
23.3085165;-0.001633256441;0.01617057249;0.05078364536
23.3235925;-0.004303702619;0.01050097495;0.03747806698
23.3386685;-0.03259554878;-0.03122441843;0.02465105057
23.3537435;-0.03299608827;-0.0259508267;0.03641929477
23.3688195;-0.04362299666;0.001878678799;0.04586243629
23.3838955;-0.03583450988;0.03821401671;0.01184212789
23.3989715;-0.03623793274;0.04037018865;-0.04342983291
23.4140475;-0.06159602106;0.00399087742;-0.07388014346
23.4291235;-0.06061169505;-0.03456660733;-0.05502345413
23.4441995;-0.01412686892;-0.01930008084;-0.01753206551
23.4592745;0.03019387275;0.02598746121;-0.02341052145
23.4743505;0.03636628017;0.02106141299;-0.03626719862
23.4894265;0.00619943114;0.004806707613;-0.04655435681
23.5045025;-0.001787367743;-0.003665046766;-0.02003627643
23.5195785;0.01692910306;0.007745855488;-8.430657908e-05
23.5346545;0.01560870931;0.02429287508;-0.0123132756
23.5497305;0.01445094869;0.01576957852;-0.03468296304
23.5648055;0.009851700626;0.0009564300999;-0.04183472693
23.5798815;0.01106333174;0.0007506664842;-0.01295284927
23.5949575;0.01763521321;0.02023355477;0.01379833743
23.6100335;0.02729335055;0.03771949559;0.02916004881
23.6251095;0.04242232069;0.02613115124;0.003960606176
23.6401855;0.0230898913;-0.008025366813;-0.01935133338
23.6552605;0.03179176897;-0.005058605224;0.002812825143
23.6703365;0.04871386662;0.01174077857;0.007047887426
23.6854125;0.03628472239;0.02259847894;-0.01544687524
23.7004885;0.01562013943;0.004463749006;-0.01944380626
23.7155645;0.005721435882;0.007573788986;-0.007415107451
23.7306405;-0.01342637278;-0.01801738888;-0.01007634401
23.7457165;-0.00350761041;-0.0003855284303;0.002995701507
23.7607915;-0.01770736091;0.004931416363;-0.01139931753
23.7758675;-0.03915512934;-0.01870493591;-0.02007163502
23.7909435;-0.0367789939;-0.03692966327;0.01492045447
23.8060195;-0.0362752825;-0.02680975199;0.06042226404
23.8210955;-0.04894272611;-0.002505523153;0.08101083338
23.8361715;-0.07593466341;0.01982827671;0.06819996238
23.8512475;-0.1111263335;0.009009012021;0.04560833424
23.8663225;-0.1237907708;-0.00930668693;0.04855929315
23.8813985;-0.1072032601;-0.02701975778;0.06812044233
23.8964745;-0.1021850705;-0.02046491764;0.08193212003
23.9115505;-0.1026102155;-0.01526366267;0.07022210211
23.9266265;-0.1008108407;-0.02069590613;0.06899542361
23.9417025;-0.1104141697;-0.04182764515;0.0612135455
23.9567775;-0.09343598783;-0.03679720312;0.08211057633
23.9718535;-0.06312775612;-0.008010347374;0.09905600548
23.9869295;-0.03782269731;0.01956808753;0.07381896675
24.0020055;-0.02271678858;-0.01138715632;0.03920669854
24.0170815;-0.03145355359;-0.02118732221;0.02549728006
24.0321575;-0.02541355975;-0.01566199772;0.02027289569
24.0472335;-0.02796559036;-0.003422386944;-0.002009278163
24.0623085;-0.05436408892;-0.01492366847;-0.03878227249
24.0773845;-0.05397740006;-0.03423158824;-0.06495208293
24.09246463;-0.01441553514;-0.02892791107;-0.03859908506
24.10754063;0.02821939439;-0.02111628279;-0.0125682205
24.12261662;0.05032277852;-0.000108695589;0.004021097906
24.13769263;0.04369204119;0.02455643564;-0.0008921674453
24.15276863;0.02055932395;0.03708121553;-0.007185888942
24.16784363;0.009423144162;0.02051101997;-0.01066275313
24.18291963;-0.0005180523731;0.003953397274;0.007814853452
24.19799562;-0.00486726081;0.009279718623;0.0002432204783
24.21307163;-0.02789385617;0.01075387932;-0.02162463032
24.22814763;-0.03454312682;-0.003194242716;-0.02596602589
24.24322362;-0.05476439744;-0.003634970635;-0.02325432003
24.25829963;-0.0563471131;-0.01260636095;-0.007246591151
24.27337463;-0.06114999577;0.00286226999;0.01100327354
24.28845063;-0.04889133573;-0.003109143116;0.008007237688
24.30352662;-0.04798747972;-0.01691153646;0.01496536192
24.31860263;-0.04305850342;-0.008414454758;0.03050144389
24.33367863;-0.05071929842;0.005856564268;0.03785768896
24.34875462;-0.06351768225;0.01102584973;0.02244902775
24.36382963;-0.07137070596;-0.008313328028;-0.003262890503
24.37890562;-0.06289067119;-0.0310338214;-0.004112171941
24.39398163;-0.05585604906;-0.02833821438;0.005537197459
24.40905763;-0.04426558688;-0.01742560044;0.004066395573
24.42413362;-0.02919580229;-0.006091956049;-0.002321545966
24.43920963;-0.04189508408;0.003569193184;-0.01760995388
24.45428563;-0.04056326672;-0.003232962452;-0.02185863629
24.46936063;-0.03708776832;-0.01043844596;-0.01870121807
24.48443662;-0.01254864596;-0.001897460781;-0.006674496923
24.49951263;0.009902068414;0.001808327623;-0.01161199808
24.51458863;0.008894391358;0.005506215617;-0.01555665396
24.52966462;0.003873479087;0.02608396858;-0.009628234431
24.54474063;-0.00498984009;0.01392616984;-0.01716211066
24.55981663;0.01354948897;-0.01053736173;-0.009666377679
24.57489163;0.02154917829;0.001693604514;-0.001876977738
24.58996763;0.005849118344;0.02974251658;-0.01343991514
24.60504362;0.008865884505;0.01748390123;-0.02421268448
24.62011963;0.01197405998;-0.007976451889;-0.02413918078
24.63519563;0.01404661592;-0.01188266091;-0.01245569251
24.65027162;0.01044292189;0.006346427836;0.00231327815
24.66534763;-0.001800991944;0.02268341184;-0.0009878515266
24.68042263;-0.0002611521631;0.00174830202;-0.01891491935
24.69549863;-0.00292480411;-0.005476795137;-0.02297480777
24.71057462;0.001905786572;-0.00359877944;-0.0105863791
24.72565063;0.00757612614;-0.004961871542;0.005491905846
24.74072663;0.003942242824;0.005799695849;0.01261399779
24.75580262;-0.006748421583;0.01395145245;-0.00376415858
24.77087763;-0.005736015737;0.009321620688;-0.01727705821
24.78595362;0.002370028524;0.008060744032;-0.01521382853
24.80102963;0.03644118086;0.009556109086;-0.002353955526
24.81610563;0.062952362;0.009170517325;0.01075807307
24.83118162;0.0517617166;0.03719360009;0.008939018473
24.84625763;0.04167403653;0.04642641172;0.00413637748
24.86133363;0.04707998782;0.01847413927;0.006745476276
24.87640863;0.06643321365;0.01573365554;0.01929176971
24.89148462;0.08546017855;0.03424490243;0.03211777657
24.90656063;0.09199263155;0.04478315264;0.0318547003
24.92163663;0.08791107684;0.04078601301;0.04245887697
24.93671262;0.07296383381;0.03733272105;0.04367292672
24.95178863;0.04170407727;0.02710122243;0.04200328887
24.96686362;0.04849629849;0.01653195173;0.04643439874
24.98193963;0.06537941098;0.01446027961;0.04397550225
24.99701563;0.07228378952;0.03538694233;0.04672732949
25.01209162;0.0635105297;0.03744541854;0.0202933643
25.02716763;0.04055057466;0.02786701173;0.008860328235
25.04224363;0.06192297488;0.0239465721;0.02232660167
25.05731962;0.08274994791;0.01941827126;0.03587040305
25.07239463;0.07905288786;0.026047308;0.04646604881
25.08747062;0.0499805063;0.03723794222;0.03595207632
25.10254237;0.0214993339;0.02510378137;0.01788732037
25.11761838;0.02394979447;-0.001461383887;0.03076894954
25.13269438;0.03820945323;0.009591709822;0.04313974082
25.14777037;0.0503975898;0.01893847249;0.04841048643
25.16284638;0.05087323487;0.03057728522;0.05190801248
25.17792138;0.03965274245;0.03459510952;0.03396068513
25.19299738;0.03792452812;0.02150688693;0.02209370583
25.20807337;0.03651916981;0.01588611864;0.02305676043
25.22314938;0.03960816935;0.0135108456;0.02362428047
25.23822538;0.05504641682;0.01499074791;0.02770116925
25.25330137;0.02906365134;0.02175254747;0.01975921914
25.26837738;0.009573144838;0.01253869105;0.01731935143
25.28345237;8.030701429e-05;0.008222240023;0.02023417875
25.29852838;0.002175042639;0.009070558473;0.02708319388
25.31360438;0.01367591415;0.02969209291;0.02810633928
25.32868037;0.01757574081;0.03409493342;0.003261340084
25.34375638;0.01771688834;0.0240566805;-0.005550793838
25.35883238;0.03171675652;0.01449126285;-0.01045858487
25.37390837;0.0550772883;0.008600750007;-0.0137495324
25.38898337;0.06146106869;0.01836083457;-0.007194348145
25.40405938;0.05673182756;0.01887935027;-0.01208391227
25.41913538;0.03707288206;0.02785177901;-0.006009691861
25.43421137;0.02572822012;0.02199873701;-0.009558625519
25.44928738;0.02437952161;0.01355868112;-0.01405455079
25.46436338;0.03397968411;0.018197909;0.001387787983
25.47943937;0.04379830137;0.02278276905;-0.002173681278
25.49451438;0.03459766507;0.02340324782;-0.007160937879
25.50959037;0.01094005909;0.02194643766;-0.01398442965
25.52466638;-0.005903102458;0.01064717863;-0.01604598388
25.53974238;0.00643487554;-0.004470120184;-0.002267134376
25.55481837;0.002634769306;0.003392538987;-0.002846737858
25.56989438;-0.01339710969;0.01803630963;-0.007525178604
25.58497038;-0.02760214545;-0.008755089715;-0.0008550258353
25.60004538;-0.02313884534;-0.02105791308;0.007375829387
25.61512137;-0.0147417821;-0.006196914241;0.0261131078
25.63019738;-0.03325469047;0.01624494977;0.02151042596
25.64527338;-0.04533479363;0.01151251234;-0.002757362556
25.66034937;-0.04794893786;0.001919440925;-0.01406546682
25.67542538;-0.03877105564;-0.009929232299;-0.01135048084
25.69050138;-0.01569898613;-0.01625948958;0.004562791437
25.70557638;-0.004068960436;-0.007099546492;0.01317891665
25.72065238;-0.003639317118;-0.01115475781;0.01040413044
25.73572837;-0.02161807567;0.002924266271;0.007531209383
25.75080438;-0.02828542702;-0.003102128394;0.001471432392
25.76588038;-0.02136200666;-0.01305515971;0.01013016794
25.78095637;-0.01228096709;-0.005094674416;0.01937136054
25.79603238;-0.009817150421;0.01778498292;0.01404347643
25.81110738;-0.02762533538;0.01684212126;-0.004453938454
25.82618338;-0.0322714895;-0.008371887729;-0.01788079739
25.84125937;-0.02424774505;-0.01535364985;-0.01556319278
25.85633538;-0.01273226738;-0.002034824342;-0.005930681713
25.87141138;0.0092029972;0.004943796434;-0.002298682928
25.88648737;0.001625771052;0.009139341302;-0.006005803123
25.90156338;-0.005150226876;0.004562920891;-0.006052737124
25.91663837;-0.002966602333;-0.005423901603;0.006860528141
25.93171438;-0.004441429861;-0.008972651325;0.02111603878
25.94679038;-0.01589248888;0.009535518475;0.02004171908
25.96186637;-0.02125371061;0.01098597702;-7.973751053e-05
25.97694238;-0.01563129947;0.004061554559;-0.01376152039
25.99201838;-0.01793867163;-0.0008065858856;-0.02298879996
26.00709437;-0.00668149069;-0.00245827809;-0.01393831335
26.02216937;0.01903056353;-0.004322048277;-0.003543054685
26.03724538;0.01384737995;0.007990203798;-0.001209039707
26.05232138;-0.007048609667;0.01285350323;0.004887845367
26.06739737;-0.02910650708;-0.01015620865;0.01375830173
26.08247338;-0.01892414875;-0.01823101379;0.0226480905
26.09755362;-0.006043909118;0.0001132991165;0.02834621072
26.11262963;-0.001225994434;0.02763852105;0.01492285449
26.12770462;0.0006230382132;0.03077119589;-0.0008478527889
26.14278063;-0.01930606738;-0.001802268438;-0.0172465127
26.15785663;-0.001828931272;-0.02185684815;-0.004427687731
26.17293262;0.03425875306;-0.01676930673;0.02221489698
26.18800863;0.02868555486;0.009300643578;0.02628260851
26.20308462;-0.02102010883;0.008932224475;-0.002968914807
26.21816063;-0.04180812463;-0.0006574196741;-0.009736353531
26.23323562;-0.03402102366;-0.009843962267;0.005628937855
26.24831163;-0.02727070637;-0.007323280908;0.02670839056
26.26338763;-0.03160521388;-0.007637593895;0.0273563955
26.27846362;-0.05060586706;-0.01282631978;0.002384982537
26.29353963;-0.06634524465;-0.02617436275;-0.005637669004
26.30861563;-0.07019510865;-0.01805997826;0.003878071904
26.32369162;-0.03766849637;-0.0108752884;-0.005958434194
26.33876663;-0.01024547126;0.001906833611;-0.009783760644
26.35384262;-0.02086059563;-0.0002438453957;-0.01350194216
26.36891863;-0.03144852445;-0.001814844087;-0.006164666731
26.38399463;-0.01852810197;-0.01794985682;0.003146954114
26.39907063;-0.01077695191;-0.01094065234;0.01653857715
26.41414663;-0.01013458706;0.01497577969;0.02333572134
26.42922262;-0.02394041233;0.0178639777;0.003470137948
26.44429763;-0.03822107986;0.004217940383;-0.01850679889
26.45937362;-0.03878472745;-0.01110699773;-0.02581883781
26.47444963;-0.02766070142;-0.007995093241;-0.02002459764
26.48952563;-0.01225804258;-0.005568687804;-0.01503170282
26.50460162;-0.01247319486;0.01642653719;-0.0275702551
26.51967763;-0.05092612654;0.02146698534;-0.04470257461
26.53475363;-0.04734650999;0.01882974431;-0.05024139956
26.54982863;-0.01178825088;0.01796475053;-0.04310945421
26.56490463;0.01677470468;0.02409963682;-0.04493752867
26.57998062;0.03212111816;0.02734369412;-0.04564705119
26.59505663;0.03731156513;0.0283125937;-0.05397986248
26.61013263;0.03766576573;0.01985652372;-0.05997970328
26.62520863;0.03487801179;0.01670901105;-0.06215328723
26.64028463;0.05335518345;0.002628980204;-0.07912252098
26.65536062;0.07711660117;0.0003081504256;-0.0845701322
26.67043563;0.07860211283;0.01526739262;-0.08980963379
26.68551162;0.07620985061;0.01417542435;-0.08828756958
26.70058763;0.06746285409;0.01364422496;-0.07782198489
26.71566363;0.05222491547;0.006243907847;-0.07313483208
26.73073962;0.03235400468;0.01106156688;-0.03690199554
26.74581563;0.007183206268;0.01975930296;-0.06137699261
26.76089062;-0.01081441902;0.01208994817;-0.1008424386
26.77596663;-0.009951575659;-0.00769204041;-0.1272715777
26.79104263;0.002607625909;-0.02650807239;-0.1314535439
26.80611862;0.01462643966;-0.02957647666;-0.1203640029
26.82119463;0.02289512008;-0.02607680298;-0.0975445658
26.83627062;0.02487120591;-0.02387433872;-0.0555780232
26.85134663;0.03318373114;-0.04298864305;-0.07910704613
26.86642263;0.02852729894;-0.04481594265;-0.0627886951
26.88149763;0.02254721522;-0.01057109516;-0.03810828179
26.89657363;0.01687313616;-0.01405696757;-0.004548664205
26.91164962;0.003423905699;-0.01009578165;0.0293408595
26.92672563;-0.009152233601;0.01023442019;0.0423158817
26.94180163;-0.007660499774;0.01135056652;0.03518648073
26.95687762;-0.007473960984;-0.005301868543;0.03141950071
26.97195363;0.0007064708043;-0.01425142121;0.04098397866
26.98702862;-0.006079253275;0.001306647435;0.05465847254
27.00210463;-0.008590772748;-0.008843562566;0.05482661724
27.01718063;0.002317777602;0.001177333295;0.06070431322
27.03225662;-0.003645040095;0.01525533572;0.0450992547
27.04733263;-0.01185090002;0.01438349113;0.02186501771
27.06240862;0.008132771589;0.02076513506;0.002766246442
27.07748463;0.02873969078;0.03823585436;-0.01762841269
27.09255592;0.04229704291;0.05280041695;-0.03538716957
27.10763192;0.05026169494;0.0443844758;-0.04505073279
27.12270792;0.05385864899;0.01722569205;-0.06646422297
27.13778392;0.06272888184;0.03134449944;-0.06618768722
27.15285992;0.09531558305;0.05440001562;-0.06961171329
27.16793592;0.1039300039;0.04982827604;-0.1028547212
27.18301192;0.09556022286;0.007004109211;-0.1470661312
27.19808692;0.08937691152;0.007943836041;-0.141588062
27.21316292;0.07278355211;0.009549987502;-0.1541629732
27.22823892;0.0693776235;0.007919437252;-0.1280239969
27.24331492;0.06754200161;0.008217726834;-0.1117535383
27.25839092;0.05087697506;0.0005167536438;-0.08996608853
27.27346692;0.03672014177;-0.007324657869;-0.07913288474
27.28854292;0.04540578648;0.00731435325;-0.09282876551
27.30361792;0.03787403554;0.002653731965;-0.0955151096
27.31869392;0.02149863541;0.01506049652;-0.08300080895
27.33376992;0.01811988279;0.017981451;-0.04977734759
27.34884592;0.01262975112;0.02558765933;-0.008363763802
27.36392192;-0.01760066114;0.01678434759;-0.03267280757
27.37899792;-0.02532935888;0.01592050679;-0.03732267022
27.39407392;-0.01359440666;0.01818259433;-0.01843100227
27.40914892;-0.01564427279;0.001462293789;-0.05198404565
27.42422492;-0.005970616825;-0.02072012052;-0.05435208604
27.43930092;0.000461671676;0.0001848191023;-0.03339123353
27.45437692;0.007244210225;0.01426255424;-0.01619919389
27.46945292;-0.01749036647;0.001775077544;-0.02534127794
27.48452892;-0.02828837745;0.008866622113;-0.01701295376
27.49960492;-0.02553872578;0.02247555181;-0.02327033319
27.51467992;-0.02866953798;0.01568315923;-0.04040857404
27.52975592;-0.02405387536;-0.004581556655;-0.04738661274
27.54483192;-0.01965281181;-0.01749094948;-0.05664877966
27.55990792;-0.02174528874;0.006094359793;-0.0214163661
27.57498392;-0.017640559;0.01902027801;-0.00405388698
27.59005992;-0.04823340476;0.03049669787;-0.02503006905
27.60513592;-0.04577674717;0.01187278423;-0.0285759028
27.62021092;-0.04539724812;0.007211453281;-0.04422064498
27.63528692;-0.0380237624;-0.01149420626;-0.05201940238
27.65036292;-0.02425960824;-0.01576504298;-0.03679945692
27.66543892;-0.009902732447;-0.008483368903;-0.02730225958
27.68051492;-0.02662793733;0.007810086012;-0.02635755204
27.69559092;-0.03051961586;0.007427124307;-0.02198411152
27.71066692;-0.01995366067;0.002266642638;-0.01622527093
27.72574192;0.008491828106;-0.009781231172;-0.006053059362
27.74081792;0.02941390872;-0.00835774187;-0.002895166632
27.75589392;0.04409298301;0.00280436594;0.01699491777
27.77096992;0.04751004651;0.03334943205;0.0364934206
27.78604592;0.02154614404;0.03045559116;0.03553925082
27.80112192;0.000597962644;0.01194844767;0.04035754129
27.81619792;0.004572197795;0.009576635435;0.04183985665
27.83127392;0.01509154588;0.008203702047;0.04406361654
27.84634892;0.01446232758;0.006548946723;0.04481055215
27.86142492;0.01851063035;-0.006523267366;0.04170864448
27.87650092;0.02936407551;0.007463921793;0.06471995264
27.89157692;0.02426533774;0.03032817878;0.07682582736
27.90665292;0.02152477205;0.03694692999;0.07415083796
27.92172892;0.02886823006;0.03107809275;0.056555897
27.93680492;0.04001489282;0.01830743626;0.04657223821
27.95187992;0.03599540889;0.01837098598;0.04387035221
27.96695592;0.05060328916;0.009256582707;0.06151043996
27.98203192;0.05287194625;0.01435933262;0.07575257123
27.99710792;0.03125879541;0.01734473743;0.08087356389
28.01218392;0.01207949873;0.02578439377;0.07747862488
28.02725992;-0.001752329059;0.01832491346;0.07633092999
28.04233592;0.01000272576;-0.007311017718;0.08348020911
28.05741092;0.03328327835;0.007450883277;0.0867684111
28.07248692;0.04175170138;0.04600375146;0.07801072299
28.08756292;0.05465486273;0.04334493726;0.07292032242
28.1026395;0.06524119526;0.03093485907;0.04276189953
28.1177155;0.05806423724;0.03591417149;0.04201461747
28.1327915;0.06920929998;0.04227273539;0.04583065957
28.1478675;0.08097557724;0.03341063857;0.04696613178
28.1629425;0.09024145454;0.02626330405;0.0526343435
28.1780185;0.06574144214;0.04446814209;0.06691288203
28.1930945;0.0558511205;0.0565010272;0.07779564708
28.2081705;0.05134542286;0.06035931408;0.06289829314
28.2232465;0.04616878927;0.05431157351;0.03659682721
28.2383225;0.04220440984;0.031459786;0.01988868788
28.2533985;0.0490931347;0.01871630549;0.009802803397
28.2684745;0.06756956875;0.02341832593;0.001885124482
28.2835495;0.08419243246;0.0406900309;-0.003952568397
28.2986255;0.08093459159;0.04183439165;0.002675772645
28.3137015;0.07230553776;0.0189381931;0.007590151392
28.3287775;0.07714878023;0.009860306978;0.02391285077
28.3438535;0.07134283334;0.04068440944;0.02666518465
28.3589295;0.06746713072;0.06402808428;0.02788171545
28.3740055;0.02361326665;0.01988307014;0.01348065212
28.3890805;0.02088554017;-0.01036063209;0.02155369706
28.4041565;0.0384487696;0.009395288303;0.02662056871
28.4192325;0.04360331595;0.02160668187;0.02665811777
28.4343085;0.03545647115;0.01093157753;0.01895906217
28.4493845;0.03450590372;0.01834302396;0.02064438909
28.4644605;0.003191743046;0.03616369516;0.01455818862
28.4795365;-0.002548434306;0.02306573652;0.005332465749
28.4946125;0.008372432552;0.02121330053;-0.006139799487
28.5096875;0.01811288111;-0.008581433445;-0.005808253307
28.5247635;0.02157050557;-0.01864971966;0.00766344741
28.5398395;0.04250481725;-0.002688863315;0.02998313494
28.5549155;0.01441530697;0.01543222927;0.03422188759
28.5699915;-0.005913912784;0.01214378979;0.0308233425
28.5850675;-0.02588970959;-0.009969709441;0.02495570108
28.6001435;-0.03765315935;-0.01931127906;0.02518100478
28.6152195;-0.03783478588;-0.01187600009;0.01819473505
28.6302945;-0.03798887506;-0.02128585055;0.01067886502
28.6453705;-0.04580362514;-0.02820856124;0.005274388008
28.6604465;-0.05231931433;-0.02411208674;0.008920256048
28.6755225;-0.02301761881;-0.001325813122;0.01117302384
28.6905985;-0.01106696948;0.001085117459;-0.01005814597
28.7056745;0.007852063514;0.005837435834;0.004198269919
28.7207505;0.03084872663;-0.01272239909;0.004362586886
28.7358255;0.03782539442;-0.001358585432;0.0329862982
28.7509015;0.04504433274;0.004042836837;0.06082975119
28.7659775;0.03422882035;0.03326759487;0.06785871089
28.7810535;0.005348167848;0.03315334767;0.04481837526
28.7961295;-0.03270975873;0.01370851416;0.01260619145
28.8112055;-0.04216712713;-0.005449659191;0.0002446831204
28.8262815;-0.0378430821;-0.008728202432;-0.01081784256
28.8413565;-0.04331747442;-0.01651608571;-0.03398787603
28.8564325;-0.0382989198;-0.02988940105;-0.03647991642
28.8715085;-0.03652608395;-0.04139524698;-0.02574697323
28.8865845;-0.02060868219;-0.0315852873;0.009920376353
28.9016605;-0.00623347098;-0.01690274663;0.03258467466
28.9167365;-0.003695149673;0.009538537823;0.01656311564
28.9318125;-0.0149865998;0.01460267138;0.008375414647
28.9468885;-0.01564234495;-0.005044785328;-0.001543491147
28.9619635;-0.01498614252;-0.02927741967;0.008773595095
28.9770395;-0.004666158929;-0.02254246175;0.01918561384
28.9921155;-0.001272813533;-0.009311571717;0.003780248109
29.0071915;-0.02767920494;0.003693328239;-0.01880675368
29.0222675;-0.03351259232;-0.01758719236;-0.03915676847
29.0373435;-0.01423293538;-0.0228812024;-0.02800838463
29.0524195;0.007887694985;-0.008041847497;-0.01270192862
29.0674945;0.01641282625;0.0009451229125;-0.005967406556
29.0825705;0.01513397694;-0.004889329895;-0.004898945801
29.097649;-0.008872386068;0.01551659405;-0.004539032467
29.112725;-0.005906680599;-0.0009682253003;-0.01047313027
29.127801;0.001110973768;0.00539853517;-0.0002586753108
29.142877;0.02495239116;-0.008651504293;-0.003953544889
29.157953;0.01884694584;0.009898787364;-0.006881362293
29.173029;0.0146301277;0.006710628979;-0.006103577092
29.188104;-0.00899661798;0.01718566939;-0.002443411388
29.20318;-0.02433562651;-0.00996632129;0.001586217899
29.218256;-0.0439972356;-0.02064828947;-0.005507028662
29.233332;-0.02326248027;-0.02782058157;0.003283612896
29.248408;-0.02129305154;-0.0160296727;0.001150337979
29.263484;-0.01491877623;-0.03539831191;0.01070682518
29.27856;-0.01750065573;-0.02456727996;0.0241683498
29.293635;-0.01445579994;0.004437030293;0.02711329237
29.308711;-0.03179650381;0.0148669444;0.01410266571
29.323787;-0.01620129868;0.006479585543;-0.004928815179
29.338863;-0.009509438649;-0.03700951114;0.002273697872
29.353939;-0.01070523635;-0.02813776582;0.02461936884
29.369015;-0.01087296382;-0.01062194631;0.03364780918
29.384091;0.001809808076;0.007115504704;0.003997505642
29.399167;-0.02144869789;0.009060720913;-0.004869799595
29.414242;-0.03932249919;0.001394293271;-0.0183488708
29.429318;-0.0191576425;-0.01075088792;-0.001209301874
29.444394;0.004949024878;0.006877905689;0.003154553473
29.45947;0.0265957322;-0.01007258147;-0.008429132402
29.474546;0.02672867477;-0.03537400067;0.003140763612
29.489622;0.03224844858;-0.02127719484;0.02984278649
29.504698;0.009613444097;-0.005061207339;0.04284353927
29.519773;-0.009457653388;-0.003732719459;0.0471338965
29.534849;-0.02994976193;0.009299487807;0.02477007732
29.549925;-0.04970145971;0.0004876209423;-0.006716636941
29.565001;-0.04392852634;-0.01671906188;-0.02075069584
29.580077;-0.01685724594;-0.01750126109;-0.02350219339
29.595153;0.002981045516;-0.02076915279;-0.02414989285
29.610229;0.004561939277;-0.008078865707;-0.02745797299
29.625304;-0.001159595675;-0.008249839768;-0.02912217937
29.64038;0.006468357984;-0.0195664838;-0.02126290649
29.655456;0.02151704021;-0.01143884193;0.00410466874
29.670532;0.01809016801;0.001932209358;0.01877276227
29.685608;0.01688189246;0.001873353496;0.03470619023
29.700684;-0.00768064335;0.01400708407;0.03164622188
29.71576;-0.03387111425;0.001617571339;0.01903355122
29.730836;-0.03591167182;-0.02333258092;0.007888387889
29.745911;-0.03160534054;-0.02949939668;0.00602976745
29.760987;-0.02382872067;-0.02921415493;0.003830567002
29.776063;-0.03304082155;-0.01017302647;0.0009294198826
29.791139;-0.0118996948;0.007701277733;-0.003430517856
29.806215;-0.0543781817;-0.02398021892;-0.006263588089
29.821291;-0.06139693037;-0.03561942652;0.006099577062
29.836367;-0.04617172852;-0.02239270695;0.01689717732
29.851442;-0.02356132865;-0.01133540738;0.01995010674
29.866518;-0.008248951286;-0.01929719374;0.01374174654
29.881594;-0.01134291571;-0.01240598504;0.01906661503
29.89667;-0.006830859929;-0.01923893206;0.02554184571
29.911746;-0.006558611989;-0.004926599562;0.03490975499
29.926822;-0.00822548382;-0.00393750146;0.02596925944
29.941898;0.001537643373;0.01219936088;0.0008916859515
29.956974;0.001887593186;-0.002567986026;0.00129884202
29.972049;-0.01586042531;-0.009388741106;-0.003092257306
29.987125;-0.009217169136;-0.01386444923;0.005404024851
30.002201;0.007612891495;-0.01694620401;0.009339319542
30.017277;-0.004330673721;-0.004213228822;0.01281908527
30.032353;-0.0108547369;-0.009694857523;0.01019101497
30.047429;-0.01473443024;-0.01126505621;0.01048849057
30.062505;-0.01254929602;-0.01478187926;0.009093485773
30.07758;-0.002078663092;-0.01775534265;0.0144631546
30.092656;-0.002254005987;0.001417656429;0.008808627725
30.10772904;-0.004141388461;-0.001132053323;0.002252457198
30.12280504;-0.009070526809;0.0009725391865;-0.0007637348026
30.13788104;-0.008496058173;-0.006273616105;-9.138416499e-05
30.15295704;0.008871265687;-0.01069372147;-0.002606148366
30.16803304;0.01356135868;-0.01131104212;-0.01225105301
30.18310904;0.02393873595;-0.02223704383;-0.008650075644
30.19818404;0.01401987858;-0.01214752346;0.001289562322
30.21326004;0.003191307187;-0.01122324541;0.01436552033
30.22833604;0.0008077780367;-0.00509690959;0.0296968054
30.24341204;-0.01421142928;0.004705579951;0.02672303468
30.25848804;-0.01512390282;-0.01689955033;0.01892425679
30.27356404;-0.009857531637;-0.01440141816;0.0134358732
30.28864004;0.00900403969;-0.01711597852;0.01652860269
30.30371504;0.01920795254;-0.006721511018;0.02533510141
30.31879104;0.00452014897;-0.0001921504736;0.0225555785
30.33386704;-0.01049230155;-0.01003523916;0.01297037303
30.34894304;-0.02314870805;-0.009343083948;0.0166580528
30.36401904;-0.03242554143;-0.0101183001;0.02042154968
30.37909504;-0.03240041062;-0.01278357767;0.02724817395
30.39417104;-0.03464412689;-0.008189091459;0.02707426995
30.40924704;0.003315241076;-0.02253127843;0.01823657006
30.42432204;-0.02279436961;-0.02113122493;0.03131926432
30.43939804;-0.01288946439;-0.0206817016;0.03220339492
30.45447404;-0.01519399509;-0.02072006464;0.03335746378
30.46955004;-0.01877914183;-0.01113135181;0.03315746039
30.48462604;0.0009941339958;0.01632412151;0.01370505337
30.49970204;-0.007173002698;0.007771884091;0.005765986629
30.51477804;-0.04118197411;-0.004524269141;-0.001949436497
30.52985304;-0.04237693548;-0.0171692241;-0.006060824264
30.54492904;-0.03378261626;-0.02199469507;-0.0002808244899
30.56000504;-0.01780363731;-0.01795824803;0.004851031117
30.57508104;-0.002401150996;-0.006145528518;0.01124890335
30.59015704;0.007992100902;0.01502047759;0.01568120159
30.60523304;0.009018441662;0.01249201223;0.01153935306
30.62030904;0.02177176625;0.008283655159;0.006681031082
30.63538504;0.01750951633;0.0006047710776;0.01508141961
30.65046004;0.02866656333;-0.001261039637;0.01756322011
30.66553604;0.02800400369;0.007944627665;0.008304600604
30.68061204;0.002307500923;0.01000109781;-0.01248831861
30.69568804;-0.005326090381;0.002161284909;-0.01639022306
30.71076404;-0.01488284394;0.003301650286;-0.01463519968
30.72584004;-0.01183430292;0.0009735450149;-0.01922444254
30.74091604;-0.005076531321;-0.001201192848;-0.02540936694
30.75599104;-0.00648732204;0.00419407431;-0.03032563813
30.77106704;-0.004534426145;-0.0017138822;-0.02285201102
30.78614304;-0.0114461733;0.007949857973;-0.01003323682
30.80121904;-0.03226117417;0.005502945744;-0.02015857585
30.81629504;-0.043954283;-0.007209209725;-0.02856869809
30.83137104;-0.03711874783;-0.01900062151;-0.02458860166
30.84644704;-0.03400795162;-0.008395973593;-0.01865890808
30.86152304;-0.01119632367;0.00590994861;-0.007047215011
30.87659804;-0.005321296398;0.01418678835;-0.01492708176
30.89167404;0.002728906693;0.0003687115386;-0.01306366734
30.90675004;0.006671730429;-0.007635792717;-0.00616161013
30.92182604;-0.006714683492;0.002252867445;-0.005890361499
30.93690204;0.00576803321;0.005982416682;-0.004034196958
30.95197804;-0.0114602223;0.01174549665;-0.01166175772
30.96705404;-0.05701441318;0.01073852647;-0.02739509754
30.98213004;-0.06454519928;-0.001378044486;-0.030387545
30.99720504;-0.0586694926;-0.01028848998;-0.02734558471
31.01228104;-0.04733454809;-0.01465500891;-0.03785441816
31.02735704;-0.01173287444;-0.01688433252;-0.03851143643
31.04243304;0.0131046474;0.003470599651;-0.03009298071
31.05750904;0.03605851904;0.01206821203;-0.006370688789
31.07258504;0.04696229845;0.01446132921;0.01367066335
31.08766104;0.03220984712;0.03986700997;0.02114937268
31.10273604;0.01689419895;0.04165214673;0.01006773207
31.11781204;0.008014482446;0.01863187179;0.004977117293
31.13288804;-0.0060179797;0.01440250501;2.923002467e-05
31.14796404;0.001539977966;0.009639172815;-0.005744929891
31.16304004;0.009393021464;0.006816090085;-0.01014891826
31.17811604;0.0093685342;0.01500919554;-0.009687448852
31.19319204;0.01474598888;0.008416539989;-0.009257082827
31.20826804;0.02094283327;0.006091768853;-0.0009837090038
31.22334304;0.01923816465;0.02195065655;0.003257825039
31.23841904;0.02528030239;0.0209055692;-0.0006126477383
31.25349504;0.03153819591;0.02262251079;0.0007929690182
31.26857104;0.02496859059;0.03890289366;-0.006000270136
31.28364704;0.02998167463;0.02402573451;-0.007112464868
31.29872304;0.04800211638;0.01361661684;0.003962437622
31.31379904;0.0496471487;0.03109573945;-0.002717569005
31.32887504;0.05054045469;0.01970419288;-0.01707580127
31.34395004;0.0532614179;0.01245788019;-0.01001606695
31.35902604;0.04698415846;0.02643067017;0.004609174095
31.37410204;0.03888841346;0.02229930833;0.009431893006
31.38917804;0.03673139215;0.01868573762;0.01945707574
31.40425404;0.02458918653;0.02373513952;0.02196466364
31.41933004;0.01180282235;0.00816151686;0.02728164941
31.43440604;0.02727978304;0.002840254456;0.04407528043
31.44948204;0.02989366092;0.02733371966;0.04569107667
31.46455704;0.02942760848;0.0308834482;0.03930880874
31.47963304;0.03218914568;0.03459366038;0.03783351928
31.49470904;0.03766726702;0.04173253104;0.02874388546
31.50978504;0.03435014188;0.03550409153;0.02103946358
31.52486104;0.04530983791;0.01941577345;0.02362838015
31.53993704;0.04752983898;0.02177253366;0.0307883136
31.55501304;0.03858348355;0.02709512785;0.03364615142
31.57008904;0.01478336565;0.01581028104;0.03785413131
31.58516404;0.02399227768;0.019895114;0.04811117053
31.60024004;0.03890054673;0.02735687234;0.04845912382
31.61531604;0.04511662945;0.03220329434;0.04481592029
31.63039204;0.04755212367;0.0358267054;0.04049029201
31.64546804;0.04816820845;0.0375652276;0.03504773229
31.66054404;0.04378838837;0.02800250053;0.02798365802
31.67562004;0.0432126075;0.01514848415;0.01861279085
31.69069604;0.04052516073;0.02600038983;0.01825373806
31.70577104;0.02936377749;0.03172940016;0.01011302695
31.72084704;0.01950485259;0.01998673938;0.003351671621
31.73592304;0.008910265751;0.03172142059;0.005782871507
31.75099904;0.008820240386;0.02755156346;0.004375165794
31.76607504;0.02844612859;-0.001942561008;0.004411426373
31.78115104;0.02813044749;0.01015243866;0.00988034904
31.79622704;0.02988067642;0.03157544136;0.008765549399
31.81130304;0.01262442768;0.02271811664;0.001361553557
31.82637804;-0.00520023983;0.007655076683;-0.007994404063
31.84145404;-0.0214222949;0.009745617397;-0.02540478855
31.85653004;-0.01924063265;-0.001973090693;-0.02828553319
31.87160604;-0.006201360375;-0.02025037631;-0.02365896478
31.88668204;-0.008725453168;-0.003875185736;-0.02107430995
31.90175804;-0.0178579744;0.003795901313;-0.03068028763
31.91683404;-0.01711229049;-0.001810053363;-0.03221160546
31.93191004;-0.01587864757;-0.003384149633;-0.03178816289
31.94698504;-0.01032507606;0.002076254226;-0.02798549831
31.96206104;-0.00405859109;-0.004337338731;-0.02200323716
31.97713704;-0.0003618574701;-0.005345345475;-0.01679649204
31.99221304;-0.008907073177;0.01532420982;-0.009597709402
32.00728904;-0.005353922024;0.01750662178;-0.01742592081
32.02236504;-0.005311096553;0.002896575257;-0.02248225734
32.03744104;-0.004940384533;-0.001448372379;-0.0152134262
32.05251704;-0.001682308619;0.001248425804;-0.004355845507
32.06759304;0.001753983088;0.001250975765;0.01243053563
32.08266804;0.005566677544;-0.00406332314;0.007327196654
32.0977435;-0.01075636968;0.01230792794;0.0112353852
32.1128195;-0.02238326333;-0.006439230405;0.008846261539
32.1278955;-0.01562567241;0.0001596817747;0.008215278387
32.1429715;-0.01971843839;-0.00440447405;0.006343691144
32.1580475;-0.02678140812;-0.00371178519;0.01305778697
32.1731235;-0.02633185312;-0.0127181774;0.02536845952
32.1881995;-0.03215627372;-0.003706169315;0.02119669691
32.2032755;-0.03872318566;-0.006816753652;0.01728754863
32.2183505;-0.02166990191;-0.009586974047;0.01270078775
32.2334265;-0.007673428394;0.007018189877;0.006309872493
32.2485025;-0.009824047796;0.007320147939;-0.008155681193
32.2635785;-0.01850311644;-0.005007102154;-0.01052845176
32.2786545;-0.0173339881;-0.02039005235;-0.01617861539
32.2937305;-0.02390161529;0.0004182886332;-0.01369280461
32.3088065;-0.02151564695;-0.00650853198;-0.01388631668
32.3238825;-0.02066315524;-0.003590619192;-0.009729977697
32.3389585;-0.005699119065;-0.01368639618;-0.006953098346
32.3540335;0.003478005994;0.01574853249;-0.00399621157
32.3691095;0.01435969211;0.01140080392;-0.007112151012
32.3841855;0.01816512831;0.007218104787;-0.004738390446
32.3992615;0.0115152169;-0.0007058642805;-0.003980720416
32.4143375;-0.007832735777;0.01733266376;-0.0007326495834
32.4294135;-0.0174205415;-0.003628916107;-0.005957934074
32.4444895;-0.008173826151;-0.02008385397;-0.01532915141
32.4595655;-0.01316805184;-0.01138357259;-0.01553794276
32.4746415;-0.004042135552;0.004989899695;-0.009026762098
32.4897165;0.001132037723;0.01697053947;-0.005789625458
32.5047925;0.006141008344;0.009108366445;-0.009142134339
32.5198685;0.005112762097;0.003758873791;-0.005364439916
32.5349445;0.01826010644;0.004049467854;0.001592331566
32.5500205;0.02440829016;0.009501373395;0.00790158473
32.5650965;0.02297729813;0.009520036168;0.01256854646
32.5801725;-0.00132218306;0.002711399458;0.005741266999
32.5952485;-0.01751744933;-0.002388766967;0.0102033345
32.6103245;-0.02687416784;-0.004085818306;0.01271883212
32.6253995;-0.02184136771;-0.008281160146;0.004239759408
32.6404755;-0.03046787903;-0.008890225552;-0.006804635748
32.6555515;-0.03657079861;-0.01869894564;-0.008319359273
32.6706275;-0.03192995489;-0.008421242237;0.002995796502
32.6857035;-0.02458024956;0.005130391568;0.005230002571
32.7007795;-0.01469033584;0.007284356281;0.002711184788
32.7158555;-0.01222765259;-0.01372351218;-0.002414024901
32.7309315;0.01116849296;-0.01286662277;0.006714451127
32.7460075;0.0190468356;0.003672811203;0.01213832572
32.7610825;0.01303368434;0.01670312509;0.01488830522
32.7761585;-0.0253710039;0.01240631659;-0.0009147264063
32.7912345;-0.05371269584;-0.008773365989;-0.01141797099
