Time (s);Linear Acceleration x (m/s^2);Linear Acceleration y (m/s^2);Linear Acceleration z (m/s^2)
0.0314765;0.07915331975;0.07866317689;-0.04329219997
0.0465525;0.04929977551;0.0491984725;-0.0331197989
0.0616275;0.04015765384;0.03206262231;-0.03414013803
0.07670604167;0.07418640241;0.0649111104;-0.07602257431
0.09178204167;0.07414707989;0.05026617408;-0.1091277552
0.1068580417;0.06536163837;0.02675218105;-0.1089657873
0.1219340417;0.07019129232;0.03574870706;-0.09378583074
0.1370090417;0.05726529121;0.1261074847;-0.08032437086
0.1520850417;0.04578720689;0.1267781603;-0.0768955636
0.1671610417;0.09614386663;0.07324514687;-0.05726646066
0.1822370417;0.08595889404;0.0592089057;-0.07073727608
0.1973120417;0.08767271295;0.05033224761;-0.05342659414
0.2123880417;0.05135697216;0.02308890045;-0.0445972985
0.2274640417;0.06273886979;-0.0006817853451;-0.07107582986
0.2425400417;0.0723443833;0.008887767792;-0.06888721704
0.2576160417;0.07505749136;0.04764720619;-0.08798948586
0.2726910417;0.0756848976;0.03739469826;-0.08087693274
0.2877670417;0.07304941133;-0.0155553478;-0.08707439661
0.3028430417;0.05870516807;-0.0119628185;-0.08403267503
0.3179190417;0.01483921006;-0.0381495738;-0.1373972887
0.3329940417;0.03083499938;-0.01713292658;-0.1385643929
0.3480700417;0.08544828594;-0.07771125019;-0.1440215993
0.3631460417;0.1615840039;-0.07423975825;-0.1184680974
0.3782220417;0.2478555778;0.05513456583;-0.01769893706
0.3932980417;0.3335025229;0.08622070312;0.008182593584
0.4083730417;0.468950496;0.1291176313;-0.0541358614
0.4234490417;0.5035882321;0.1503155422;-0.1602052304
0.4385250417;0.5974961235;0.06808965683;-0.2543503726
0.4536010417;0.6273565382;0.01196515739;-0.2390669203
0.4686760417;0.5923874111;-0.07898945153;-0.1633808532
0.4837520417;0.5584744374;-0.09289237618;-0.119020367
0.4988280417;0.4065990043;-0.1811233521;0.009308767319
0.5139040417;0.3602922723;-0.2301791525;0.08507114053
0.5289790417;0.09835089818;-0.1826582462;0.06845276892
0.5440550417;-0.0659101072;-0.07637574613;0.1223050404
0.5591310417;-0.2104926006;0.02584937096;0.1066891739
0.5742070417;-0.2635462886;0.06530638218;0.1969546884
0.5892830417;-0.3130606569;0.1431515336;0.1938726211
0.6043580417;-0.3282093309;0.1534537429;0.1979832137
0.6194340417;-0.3504473153;0.1469346821;0.03631237864
0.6345100417;-0.3052907306;0.03833200693;-0.00090778023
0.6495860417;-0.2447939757;-0.02270707726;0.0353405714
0.6646610417;-0.2188431555;-0.02379875243;0.09433576137
0.6797370417;-0.2716832739;0.08739014626;0.0579318738
0.6948130417;-0.2823655522;0.06683367491;0.02859463871
0.7098890417;-0.2893617457;0.03717191935;-0.07341530085
0.7249650417;-0.2488706544;0.0434746331;-0.1014620554
0.7400400417;-0.1009475005;0.1550862855;-0.1490975672
0.7551160417;0.03125746071;0.198536945;-0.1511666045
0.7701920417;0.2150939208;0.2865486503;-0.1389304286
0.7852680417;0.2340465009;0.2778468239;-0.1084366143
0.8003430417;0.2982255399;0.1799439687;-0.1290141356
0.8154190417;0.2364973614;0.08413149297;-0.1578268754
0.8304950417;0.1106731743;0.008028811812;-0.2290190649
0.8455710417;0.09699010491;0.06122385621;-0.2218006772
0.8606470417;0.02191390246;0.1145539713;-0.1495004404
0.8757220417;0.04393510133;0.1630133557;-0.09198137999
0.8907980417;0.04164036155;0.2343985033;-0.06697868586
0.9058740417;0.1029504642;0.1589343381;-0.06267747402
0.9209500417;0.1984401736;0.07124072134;-0.08652885139
0.9360250417;0.2000750551;0.006487485766;-0.01951654404
0.9511010417;0.1696511149;0.04260924518;0.09704740763
0.9661770417;0.1101331839;0.09421793997;0.1242056778
0.9812530417;0.00371707499;0.07014436841;0.1228409377
0.9963280417;-0.07141964614;0.07987881303;0.1619357139
1.011404042;-0.2092154226;0.08453845918;0.07754928231
1.026480042;-0.2375982459;0.08643821955;8.186101913e-06
1.041556042;-0.2813602696;-0.02836308897;-0.1171463344
1.056632042;-0.2790857027;-0.06210386217;-0.1349923289
1.0717035;-0.2907874431;-0.06556249022;-0.1194097915
1.0867795;-0.2954013348;-0.03963944435;-0.1204704764
1.1018555;-0.1112095101;-0.04609418571;-0.1583566332
1.1169315;-0.04549689263;-0.07497241437;-0.1270216969
1.1320065;0.1124352327;-0.02622359276;-0.04854183018
1.1470825;0.1712434579;8.361518383e-05;-0.03970581025
1.1621585;0.268450056;0.03743679821;0.01041242927
1.1772345;0.3153662141;0.03600539982;0.04363455445
1.1923105;0.3845415527;0.0308043015;0.08913963318
1.2073855;0.3920213109;0.03573058069;0.07574950933
1.2224615;0.2695209736;0.049445225;0.05177943349
1.2375375;0.2167331877;0.06075490952;-0.03796538651
1.2526135;0.05888526231;0.08587805629;-0.2125620764
1.2676885;0.0731144616;0.06923980415;-0.3127330667
1.2827645;0.1413551228;0.06923804998;-0.375850836
1.2978405;0.2405873425;0.05266528666;-0.3234896046
1.3129165;0.3695164011;0.02776257992;-0.2192974842
1.3279915;0.3623760737;-0.0007770949602;-0.1409003556
1.3430675;0.1673636842;-0.1076565957;0.09460268676
1.3581435;0.04876153931;-0.2353381509;0.1930446553
1.3732195;-0.2842631198;-0.3691417408;0.2020049286
1.3882955;-0.2130327773;-0.2878981876;0.2279156953
1.4033705;0.0368479836;0.03479736507;0.1922061646
1.4184465;0.2005058487;0.1947011715;0.1705428153
1.4335225;0.3895849223;0.3739066368;0.1658477935
1.4485985;0.4589861096;0.4071889883;0.1550848237
1.4636735;0.4826407282;0.274688158;0.1202836579
1.4787495;0.4194864137;0.1131295896;0.08962261319
1.4938255;0.1804456598;-0.1484894568;-0.0009098267555
1.5089015;0.07893390298;-0.2356123853;-0.04173216283
1.5239765;0.04732692495;-0.1430497921;-0.130388816
1.5390525;0.05054640189;-0.05345466077;-0.2353834668
1.5541285;-0.0208818689;0.1129114884;-0.3886462981
1.5692045;-0.08936738223;0.1521463054;-0.4415747094
1.5842805;-0.2365437005;0.1483935624;-0.4026480407
1.5993555;-0.2631350832;0.1430696726;-0.3301557228
1.6144315;-0.1521694019;0.1728542197;-0.2250856429
1.6295075;-0.02860180154;0.1967985678;-0.1522474623
1.6445835;0.1005991526;0.01123659432;-0.1124121362
1.6596585;0.2722324736;0.1524415898;-0.07788315833
1.6747345;0.5570876241;0.4425231278;0.02213697374
1.6898105;0.6423091842;0.3450950664;0.01147223711
1.7048865;0.7458044627;0.01524603009;0.09873754531
1.7199625;0.6748142946;-0.09195506752;0.1294208094
1.7350375;0.3288468236;-0.1386316359;0.1816291362
1.7501135;0.1355940074;-0.08070151627;0.1739073032
1.7651895;-0.02431564629;-0.03424187958;0.07896957099
1.7802655;-0.09288360536;-0.06725525916;0.033891339
1.7953405;-0.09846448034;0.4198862171;0.03762887925
1.8104165;0.008866425455;0.5976749021;-0.03830277085
1.8254925;0.158627944;-0.07442511499;-0.5050158298
1.8405685;0.1106617722;-0.1129378009;-0.4426967901
1.8556445;0.1485379887;0.365703578;-0.2645876777
1.8707195;-0.008972552419;0.01880932331;-0.3957845789
1.8857955;0.08129939407;0.2840021878;-0.0525226146
1.9008715;-0.1110403794;-0.1835534549;-0.4371583074
1.9159475;-0.3125798696;0.288111611;-0.1449700177
1.9310225;-0.2582036877;-0.241457262;-0.3711824191
1.9460985;-0.5155180138;0.01147399127;-0.2134520227
1.9611745;-0.4271382263;-0.1395098877;-0.04234202743
1.9762505;-0.3488440087;-0.04686543345;0.4010774785
1.9913265;-0.3773439226;-0.2121609575;0.5164600003
2.0064015;-0.3545318878;-0.1330925685;0.5620253053
2.0214775;-0.2782894582;-0.001294573545;0.4477137011
2.0365535;-0.1644804221;-0.2218024313;0.3811098218
2.0516295;-0.3545663863;-0.5578922009;0.3608644223
2.0667045;-0.3309705323;-0.406841079;0.1914986515
2.081780375;-0.2007009995;-0.3316260052;0.03457897156
2.096856375;0.04605968714;-0.2018090469;-0.3232457757
2.111932375;0.1783026552;-0.1910560173;-0.4667767936
2.127008375;0.2390827078;0.07737971306;-0.4034257203
2.142083375;0.3751827917;0.4293160218;-0.2738677937
2.157159375;0.3646235973;0.8612106657;-0.005320089161
2.172235375;0.4290037805;0.992312842;-0.04228589416
2.187311375;0.4395512804;0.4807504696;-0.1522872233
2.202386375;0.4053243113;0.1763567019;-0.1676481512
2.217462375;0.3095860952;-0.1478678977;-0.1332992676
2.232538375;0.2426275823;-0.1958367008;-0.1412614211
2.247614375;0.07165938199;-0.2159324116;-0.120458782
2.262690375;-0.05820435405;-0.1480719656;-0.1048753676
2.277765375;-0.1890603626;0.009702869654;-0.002025475502
2.292841375;-0.2125506744;0.07833573282;0.01030747175
2.307917375;-0.08456944942;-0.01799714506;0.06651295513
2.322993375;-0.06634660184;-0.02713692784;0.05007087708
2.338068375;-0.001842750013;-0.0717114222;0.04410086989
2.353144375;-0.001296620071;-0.02252990663;0.01864998668
2.368220375;-0.03372849405;0.08159789443;-0.006607938409
2.383296375;-0.03083646119;0.0793303442;-0.05273837686
2.398372375;0.07833222449;0.05765471578;-0.1394698343
2.413447375;0.1335726249;0.04689233065;-0.1621964997
2.428523375;0.1630592564;0.002166393399;-0.2026817438
2.443599375;0.1683360761;-0.0236923331;-0.1686898327
2.458675375;0.1737397805;0.009510496259;-0.1213829345
2.473750375;0.1149355021;0.04237769544;-0.1080015814
2.488826375;0.0201579836;0.1012749445;-0.06771982044
2.503902375;0.0006551805139;0.1000394279;-0.06598465919
2.518978375;-0.02607741237;0.1194334728;-0.03840685129
2.534054375;-0.0230258967;0.1418873656;-0.06500437349
2.549129375;0.01437961891;0.2015552777;-0.04171462119
2.564205375;0.06667389974;0.2380261159;0.001022970378
2.579281375;0.06524279371;0.06435620964;-0.03768296599
2.594357375;0.04572566494;0.0643661499;-0.002065236568
2.609433375;0.01435155228;-0.00750490129;-0.05060326606
2.624508375;0.02732696235;-0.01387602746;-0.04011950076
2.639584375;0.03343057841;0.0004736244678;0.01785622716
2.654660375;0.05039042741;0.04085683465;0.03768705904
2.669736375;0.11951548;0.08188616216;0.03694183141
2.684811375;0.1722304679;0.07172896385;0.03566333771
2.699887375;0.203388526;0.02896710634;0.031349262
2.714963375;0.2070037133;0.01497647345;0.02387271971
2.730039375;0.2180109505;0.003907694221;0.0003859162331
2.745115375;0.1948730797;-0.02858177483;0.004581293464
2.760190375;0.1124096511;-0.05443523884;-0.04564044178
2.775266375;0.06481916294;-0.01243936658;-0.08942380786
2.790342375;0.04126672447;0.03769524515;-0.1038553208
2.805418375;0.03667300567;0.02002320528;-0.07534751326
2.820493375;0.07336910784;0.07662249863;-0.1059126636
2.835569375;0.04436969563;0.1140247983;-0.1045680964
2.850645375;0.07716833621;0.1178763592;-0.09088853538
2.865721375;0.114280614;0.09598204494;-0.07433682203
2.880797375;0.1463938147;0.06052335978;-0.05109004676
2.895872375;0.1267486319;0.02906767845;-0.02759651899
2.910948375;0.03745580167;-0.0674300909;-1.900345087e-05
2.926024375;-0.00694473803;-0.1041020733;-0.001401869953
2.941100375;-0.1243724696;-0.0804284513;-0.01746212482
2.956175375;-0.1427729264;-0.02931209207;-0.04369858146
2.971251375;-0.09832268536;0.003476169705;-0.057231085
2.986327375;-0.05450394362;0.05698520958;-0.1313261247
3.001403375;0.0302362445;0.08256151557;-0.1286697346
3.016479375;0.07802393004;0.09619780719;-0.1186797667
3.031554375;0.1152139758;0.1128442454;-0.06339902043
3.046630375;0.1093590125;0.1240317231;-0.03547154903
3.061706375;0.103807666;0.08523193896;-0.01744019777
3.076783;0.1154388012;0.08059919;0.009276315272
3.091858;0.1493568912;0.1074700695;0.07014378369
3.106934;0.1327806196;0.1022426587;0.09142530978
3.12201;0.0566392006;0.1994947189;0.1077828956
3.137086;-0.009424834549;0.2189080596;-0.02065295041
3.152162;0.01015018165;0.08853152275;-0.1584338164
3.167237;0.002069329619;0.03636207998;-0.188404305
3.182313;-0.1127357796;0.07082790792;-0.1162172118
3.197389;-0.1818728189;0.1125396055;0.007821820378
3.212465;-0.259772788;-0.07611028254;-0.01967880428
3.22754;-0.2606370065;-0.2150044584;-0.01292059243
3.242616;-0.269556203;-0.2966017681;0.1579865044
3.257692;-0.3431118371;-0.1367277825;0.199276033
3.272768;-0.2263625287;0.1131711048;0.3283644283
3.287844;-0.06435021624;0.1769227123;0.2448486471
3.302919;0.1574821821;0.2401129872;0.1011995155
3.317995;0.1900394788;0.185134542;0.02742753446
3.333071;0.2315311749;0.0287490052;1.666456461e-05
3.348147;0.1366239944;0.1128483385;-0.05943870127
3.363222;0.09500336722;0.2313146818;-0.2588661772
3.378298;0.05349149823;0.202069248;-0.3391715446
3.393374;0.1386499085;0.03475818872;-0.3944625235
3.40845;0.1723121828;0.06594080508;-0.5065635878
3.423526;0.04094907448;0.2253739107;-0.4944148278
3.438601;0.02097410873;0.1902011544;-0.5055748236
3.453677;-0.05235304534;0.2025703543;-0.3107146078
3.468753;-0.06040509984;0.2165563095;-0.304379442
3.483829;-0.01726171151;0.1039523846;-0.2951323628
3.498904;-0.08397201017;0.1111263335;-0.2782581756
3.51398;-0.01838700816;-0.06615130484;-0.1323841783
3.529056;0.07062281683;-0.1402220786;-0.03262950987
3.544132;0.1823549218;-0.2604917032;0.1105690938
3.559208;0.1411858459;-0.2544719946;0.2197962517
3.574283;0.2794381437;-0.4846552402;0.2211931515
3.589359;0.3267761783;-0.4683356613;0.1821892995
3.604435;0.4005168767;-0.309672634;0.1404664922
3.619511;0.4508951712;-0.1947000021;0.1242322826
3.634586;0.4780837007;0.009231584072;0.1258706725
3.649662;0.4571668947;0.1065333456;0.09620190024
3.664738;0.2663281015;0.2786970091;0.07068699002
3.679814;0.1491161321;0.2788256478;0.000282420516
3.69489;-0.01487312391;0.1761666673;-0.1764338851
3.709965;-0.02452614605;0.07474671185;-0.1898473978
3.725041;-0.08483403593;-0.02555057824;-0.1919447941
3.740117;-0.1318827796;-0.009592941999;-0.1742060959
3.755193;-0.217700171;-0.03179365039;-0.132522465
3.770268;-0.2307100797;-0.02627914131;-0.1136090612
3.785344;-0.1998652862;0.04064633489;-0.10851906
3.80042;-0.1323143041;0.01742528737;-0.1108561921
3.815496;0.000948126018;-0.05698637903;-0.09601128101
3.830572;0.07882295206;-0.07877368927;-0.06552974582
3.845647;0.1178452228;-0.07047181249;0.04901253104
3.860723;0.08875474021;-0.01929347277;0.1382158989
3.875799;0.1155134994;0.08258022666;-0.02540498257
3.890875;0.2003219537;0.1019625771;-0.03019268274
3.905951;0.2106585154;0.1448308539;-0.1028063303
3.921026;0.231189259;0.08149615288;-0.1766747904
3.936102;0.2104241882;-0.1376452106;-0.07745046437
3.951178;0.1741335905;-0.1461786371;-0.01654586613
3.966254;0.04691864312;-0.02046700895;0.06534789741
3.981329;-0.01569246501;0.05097134829;0.04551911205
3.996405;-0.0840738979;0.1328142411;-0.01550740063
4.011481;-0.07178889781;0.1150720346;-0.06914917231
4.026557;0.0221521765;0.06418839455;-0.2206265563
4.041633;0.07258280352;0.02621248305;-0.2691286254
4.056708;0.1861326617;-0.117078799;-0.3455856478
4.07178775;0.2573963334;-0.2038508946;-0.3115443277
4.08686375;0.334294382;-0.2880279958;-0.2057734591
4.10193975;0.3378228843;-0.3088107544;-0.03755929738
4.11701475;0.2445193027;-0.1853672612;0.2138028556
4.13209075;0.1971265966;-0.1140522802;0.2949879366
4.14716675;0.1253023231;0.02092893898;0.2764078242
4.16224275;0.1198122261;0.04523406029;0.2739958477
4.17731875;0.1187458402;0.05708987474;0.1947239757
4.19239375;0.1399706483;-0.001798603535;0.139073393
4.20746975;0.08289641485;-0.01483263195;0.1334942722
4.22254575;0.0189935106;-0.0622892189;0.1707857671
4.23762175;-0.1274614075;-0.0696263051;0.2034421742
4.25269675;-0.2028168145;-0.04677597106;0.3136431858
4.26777275;-0.1695020109;0.0952897346;0.103012737
4.28284875;-0.05844540551;0.09735789478;-0.03739352882
4.29792475;0.1140186587;0.06794756949;-0.07072382748
4.31300075;0.1950579979;0.08351812005;0.007220141888
4.32807575;0.1872408552;0.110134061;-0.09553063989
4.34315175;0.1527017909;0.06857614517;-0.1685050607
4.35822775;-0.04970820352;0.006604430079;-0.1350736052
4.37330375;-0.03329024523;-0.1702627337;0.001893036067
4.38837975;-0.1072405663;-0.005512170196;0.04839740396
4.40345475;-0.111057044;0.09083824933;0.02122685462
4.41853075;-0.001089190096;0.1038646764;-0.03604165256
4.43360675;0.1215275069;0.04250165641;0.03528356105
4.44868275;0.2221377692;0.1029706371;-0.01804801583
4.46375775;0.2967897561;0.1497629803;-0.03285755128
4.47883375;0.3583194217;0.188603695;-0.1062713903
4.49390975;0.3931650263;0.266695599;-0.03012953281
4.50898575;0.3980611923;0.08899462223;-0.03697720706
4.52406175;0.3712926391;0.05647650182;-0.1066207615
4.53913675;0.2717721516;-0.03220529437;0.01813280046
4.55421275;0.1656232604;-0.01355852365;0.02424431026
4.56928875;0.02033603132;0.146670388;-0.03810747385
4.58436475;-0.001347783208;0.3197649282;-0.09413140118
4.59944075;-0.2517971858;-0.01363044441;-0.2316593751
4.61451575;-0.2172193837;0.07005139768;-0.1957855377
4.62959175;-0.2566977373;0.2126199639;-0.1115929413
4.64466775;-0.2763233319;0.1864782321;-0.06340662181
4.65974375;-0.5001398367;0.1918641025;0.03063590169
4.67481875;-0.504058933;0.162153815;0.1027592602
4.68989475;-0.3300320542;0.03088791668;0.1090523261
4.70497075;-0.1162169194;-0.02080556273;0.08961501181
4.72004675;0.2165033922;-0.1787990838;-0.02170866519
4.73512275;0.3015797952;-0.07152372658;-0.1150085923
4.75019775;0.2270810053;0.03547856569;0.1281896782
4.76527375;0.1369771662;-0.04267824233;0.06689507067
4.78034975;0.2500187552;-0.1388894981;0.1025551924
4.79542575;0.1648683849;0.08476708531;-0.003954471946
4.81050175;0.2971017051;-0.1661919022;-0.03830803335
4.82557675;0.2900976178;-0.01659907579;-0.1314275739
4.84065275;0.2416303396;0.07566004694;-0.1235326633
4.85572875;0.2376770371;-0.005366574526;-0.07389828086
4.87080475;0.02310351849;-0.1084898239;0.05216856569
4.88587975;-0.03106274843;0.05336461365;0.0874456948
4.90095575;-0.07339805156;-0.01539104104;0.06479416609
4.91603175;0.004014698267;-0.03922955453;0.02233548671
4.93110775;0.108089582;-0.06097593427;-0.005665367246
4.94618375;0.1875310233;0.02436417818;0.08026882231
4.96125875;0.272603918;-0.05165722668;0.01627630949
4.97633475;0.3270397416;-0.04730397463;0.05941151172
4.99141075;0.2866588703;-0.2746852344;0.1641181871
5.00648675;0.3663309842;-0.1726636004;0.3259606379
5.02156275;-0.04243704468;-0.02181128383;0.4270668903
5.03663775;-0.06588496417;0.1665363032;0.5295209259
5.05171375;-0.08343070418;0.3283837241;0.4769415933
5.06678975;0.07670816034;0.3780125517;0.3611953747
5.081861875;0.3295230541;0.4692443186;-0.001761181355
5.096937875;0.4617768395;0.4055950373;-0.1337065262
5.112012875;0.3068227011;0.5677389121;-0.377629559
5.127088875;0.164819853;0.3791276157;-0.5260969426
5.142164875;-0.2384553015;0.01419587016;-0.6490136017
5.157240875;-0.3573479068;-0.03703684866;-0.6547742786
5.172315875;-0.5522446677;-0.1333551085;-0.4867073205
5.187391875;-0.6160988939;-0.2211791182;-0.399304018
5.202467875;-0.6202685434;-0.2897675425;-0.2560428491
5.217543875;-0.6202916399;-0.281181491;-0.2154763287
5.232619875;-0.4992864355;-0.2326595414;-0.12545055
5.247694875;-0.414339256;-0.2300575304;-0.07853746176
5.262770875;-0.1806813025;-0.1495647597;0.06147762537
5.277846875;-0.09238132954;-0.1480456531;0.1740552378
5.292922875;0.04552145094;-0.07324690104;0.2619181314
5.307997875;0.03356418729;-0.01165057719;0.2261583146
5.323073875;0.1612419418;0.1046406019;0.1194112533
5.338149875;0.2039219382;0.09398346663;0.008140201271
5.353225875;0.3483265302;0.08201070786;-0.204089461
5.368301875;0.3800277945;0.1140897024;-0.1720879421
5.383376875;0.3636383414;0.3097474784;-0.05381163329
5.398452875;0.3734236568;-0.06930236936;-0.1967228463
5.413528875;0.3277001846;0.07161318898;-0.01892889887
5.428604875;0.242145187;0.05761144638;0.03386619598
5.443679875;0.258853898;0.06060639024;0.1469115856
5.458755875;0.2402585828;0.0444750917;0.1685573933
5.473831875;0.1585133386;0.106942066;0.06840920717
5.488907875;0.1721344274;-0.1284376001;0.1463107842
5.503983875;0.1269623476;-0.0085246557;0.1551079202
5.519058875;0.08081846058;0.02634813845;0.07084749609
5.534134875;0.02748951495;0.03558966279;-0.07172428608
5.549210875;0.01512791634;0.006793879867;-0.09632703066
5.564286875;-0.02019277453;0.0193297255;-0.1658124179
5.579362875;0.002901388407;-0.03369399548;-0.1244755268
5.594437875;0.03813261688;0.1026759374;-0.07670289785
5.609513875;-0.01763812602;0.02707553208;-0.08120291501
5.624589875;-0.006856152713;0.004470196366;-0.07237128049
5.639665875;0.01328195035;0.03048913658;-0.05920539737
5.654740875;0.04206136107;0.1068900257;-0.08110263526
5.669816875;0.126003989;0.01241188467;-0.06363290906
5.684892875;0.1560928836;-0.03699357927;-0.005346693993
5.699968875;0.127058242;-0.0482062;0.005662735999
5.715044875;0.1169168311;-0.03629015923;0.02719423056
5.730119875;0.05516731024;0.09914363444;0.03338029236
5.745195875;0.01949169338;0.0358691597;0.04231425315
5.760271875;-0.00734790355;0.08285036802;0.03096217632
5.775347875;-0.00807266593;0.1111970848;0.04315245152
5.790422875;-0.0009592357278;0.05984215915;0.02792630196
5.805498875;0.01893123776;-0.01283405364;0.02605753183
5.820574875;0.004701746106;-0.02556987405;0.04114597946
5.835650875;-0.01706685305;-0.01184119642;0.04409473032
5.850726875;0.01773431271;-0.02585931122;0.03848725051
5.865801875;0.03508914113;-0.03787709355;0.0110488987
5.880877875;0.04024024576;-0.04234787464;0.008788657486
5.895953875;0.07728937358;0.04962882757;0.02379612118
5.911029875;0.06394398093;0.1238101137;0.01144914061
5.926104875;0.05975006551;0.1844527566;-0.01981796801
5.941180875;0.05472087532;0.1591407448;-0.03918102264
5.956256875;0.08033606529;0.09371507943;-0.08497261494
5.971332875;0.06987773538;0.06229506612;-0.08431217194
5.986408875;0.07185000122;-0.04427804053;-0.07468473136
6.001483875;0.0389629215;-0.09807768703;-0.07347757369
6.016559875;0.01154766619;-0.1380264491;-0.01208473295
6.031635875;-0.06806100547;-0.07250371993;0.002549093664
6.046711875;-0.04926746964;0.02716499448;0.0222729215
6.061786875;0.006468189955;0.02814381838;0.08518983901
6.076862375;0.02230332702;0.04938850701;0.1003136623
6.091938375;0.02792308599;0.06236757159;0.09474009633
6.107014375;0.07184327692;0.00891700387;0.06463015169
6.122090375;0.04432949603;0.1939363557;0.2298370904
6.137165375;0.08139938146;-0.1438192856;0.01595149666
6.152241375;0.03360599488;0.00845390439;0.05520385534
6.167317375;0.01035571128;0.1027642304;-0.04685637027
6.182393375;0.02860282481;0.07716336608;-0.05320001453
6.197469375;0.06951169968;0.09186443567;-0.08718432426
6.212544375;0.07470285773;0.07004613519;-0.09132064462
6.227620375;0.1062585264;0.01546003819;-0.07798109919
6.242696375;0.112065981;0.001761181355;-0.09041988105
6.257772375;0.1012652966;0.009042134285;-0.04123105645
6.272847375;0.08797545254;0.01739722073;-0.01194059908
6.287923375;0.09426939547;0.0495861429;0.02357509643
6.302999375;0.1151375234;0.07774457932;0.0338884154
6.318075375;0.1029785308;0.1191568995;0.05312780142
6.333151375;0.08894550562;0.1135388947;0.05940069437
6.348226375;0.08464546323;0.1104597509;0.0173840645
6.363302375;0.08591401666;0.0401937604;-0.03572882652
6.378378375;0.03220178604;-0.0939665097;-0.04131876469
6.393454375;-0.05487816542;-0.1311887151;-0.04684262931
6.408529375;-0.1636524564;-0.08092663407;-0.011297113
6.423605375;-0.1721168858;-0.0518151015;-0.0226538676
6.438681375;-0.04969694763;0.001408594251;-0.01670958817
6.453757375;0.01787406117;0.02462087095;-0.03029354721
6.468833375;0.08151223272;0.03433601975;-0.02391481966
6.483908375;0.08555265874;0.04231746912;-0.03498769194
6.498984375;0.142985765;-0.01106410146;0.002204400301
6.514060375;0.1281946483;-0.02335260987;0.0164230746
6.529136375;0.05067372501;-0.004215842485;0.04229495734
6.544211375;0.01281505018;0.01971564174;0.02872298509
6.559287375;0.003527332842;0.1034904546;-0.03483624905
6.574363375;0.01291971534;0.07045193195;-0.01670023263
6.589439375;-0.00550632298;0.1077899122;-0.04258702576
6.604515375;0.007871229351;0.1445507723;-0.0342044574
6.619590375;0.03955846041;0.191205706;-0.03912225813
6.634666375;0.06841037661;0.1865782195;-0.06322623521
6.649742375;0.1000239328;0.1092616564;-0.0569179666
6.664818375;0.08525035769;0.04699231803;-0.0774188894
6.679893375;0.04540421426;-0.06989352286;-0.03123641074
6.694969375;0.008221477568;-0.09537627339;-0.02363035262
6.710045375;-0.03491927952;-0.08947584808;0.01611989647
6.725121375;-0.01978317708;-0.08861806154;0.02968923748
6.740197375;0.03111011088;0.03081131816;-0.003195795715
6.755272375;0.07686808169;-0.01401577592;0.03122413158
6.770348375;0.03468071312;0.06639279485;-0.006471405923
6.785424375;0.07650877029;-0.0512157619;0.02220538616
6.800500375;0.09418870389;-0.08523135424;0.006236347854
6.815575375;0.08667678595;-0.1000318265;0.02811019689
6.830651375;0.07214616269;-0.119038201;-0.001800942421
6.845727375;0.05191742778;-0.107851308;-0.001097522378
6.860803375;0.04487621069;-0.0406059891;0.0003973183036
6.875879375;0.06631268799;-0.01437128663;0.004253557026
6.890954375;0.07279754251;0.1039564776;-0.03772184998
6.906030375;0.08806754619;0.120831542;-0.001931920052
6.921106375;0.06978622645;0.1485701483;-0.0472706455
6.936182375;0.09646560967;0.1445075029;-0.0609525454
6.951258375;0.09149693817;0.06490760207;-0.065045304
6.966333375;0.07251716852;0.03738358855;-0.0640083003
6.981409375;0.03895327359;0.006806159019;-0.01960074395
6.996485375;0.03595569849;0.003360394835;0.002861042619
7.011561375;0.01816174418;-0.007927654982;0.01373130888
7.026636375;0.005035037398;0.007230666876;0.007468356192
7.041712375;-0.03799813092;0.02407474101;-0.0004633918405
7.056788375;-0.02372712404;0.02631013155;-0.003909156024
7.071864375;-0.006258274913;0.00932806313;0.006232254803
7.0869405;-0.0130363673;0.01769659817;0.02083626062
7.1020155;-0.009162002206;0.001300420761;0.019157525
7.1170915;0.01461365372;0.002416654229;0.017900666
7.1321675;0.06777215302;-0.0008162713051;-0.00202459842
7.1472435;0.08235657066;0.004836232066;0.001403916478
7.1623185;0.08428966016;0.005179463625;-0.01569509625
7.1773945;0.08902385831;0.0425203675;-0.04685081542
7.1924705;0.123632943;0.03911377966;-0.05268633664
7.2075465;0.1183920836;0.02546930194;-0.03871646136
7.2226225;0.09898897558;0.06321307898;-0.02808008373
7.2376975;0.07247360677;0.06594606757;-0.05493459105
7.2527735;0.1187475944;0.02531552017;-0.06496022701
7.2678495;0.1040643588;0.04590765953;-0.03365248024
7.2829255;0.05750298053;0.0449416995;-0.03807180583
7.2980005;0.04913444549;0.0263522315;-0.05186187923
7.3130765;0.007122201025;-0.006268799901;0.01898327798
7.3281525;0.002879461348;-0.0123042959;0.03791743934
7.3432285;-0.04427804053;0.0132614851;0.05458726645
7.3583045;-0.04503700912;0.01979808748;0.05124207437
7.3733795;-0.03785165817;0.04394708812;0.00954850316
7.3884555;-0.03261576891;0.05578302205;0.004730105102
7.4035315;-0.02137771279;0.06584666491;-0.0305806455
7.4186075;-0.01389356911;0.05464690804;-0.05077020407
7.4336825;0.03013128698;0.01202538371;-0.08057141572
7.4487585;0.04483118713;-0.001497471929;-0.07354481667
7.4638345;0.05340408236;0.01462739468;-0.03179686636
7.4789105;0.06020848721;0.02180894494;-0.02363386095
7.4939865;0.05155606985;0.02724860966;0.009514004588
7.5090615;0.05027523726;0.01260308862;0.01377223939
7.5241375;0.03351448596;0.03006872177;0.02239629775
7.5392135;0.01689991504;0.04963292062;0.004555273354
7.5542895;0.03590365827;0.01803222835;-0.01410056055
7.5693655;0.0450013411;0.01349771261;-0.001264752746
7.5844405;0.03423807889;0.02839524865;-0.01104188204
7.5995165;0.02019482106;0.03429742813;-0.002509917319
7.6145925;0.03643546253;0.04220403314;-0.008160081804
7.6296685;0.04996328831;0.03300402403;0.01443706781
7.6447435;0.03720290959;0.01013088584;0.02100641459
7.6598195;0.03336099654;0.03270640075;0.01139037609
7.6748955;0.04019609928;0.0474413842;0.001988638043
7.6899715;0.03980462819;0.04845412195;-0.01579479128
7.7050475;0.04673123986;0.04533229351;-0.02271467865
7.7201225;0.02278075218;0.03136154115;-0.04368396342
7.7351985;0.09083795696;-0.05188117504;-0.06267279625
7.7502745;0.09053360939;0.001872863173;-0.0164447093
7.7653505;0.09895535409;0.0008899462223;-0.07291945696
7.7804255;0.08201538563;-0.01636167884;-0.03082769036
7.7955015;0.04101909488;-0.05116781473;0.03077798903
7.8105775;0.01355267644;-0.06705411494;0.0288302815
7.8256535;-0.001403039396;-0.02317894757;0.01660580009
7.8407295;-0.01044371188;0.00531219542;0.02019423634
7.8558045;0.01305683255;0.05119763553;-0.00725464046
7.8708805;0.02304796994;0.07333928704;-0.0271424827
7.8859565;0.01707708567;0.09383143902;-0.05140930474
7.9010325;0.02991230875;0.09310638428;-0.07738643736
7.9161075;0.07441956013;0.03610070944;-0.05216944277
7.9311835;0.06968243837;0.01957472384;-0.03112297475
7.9462595;0.05891245186;0.004477213025;-0.02095671326
7.9613355;0.05074213743;-0.009305843711;-0.01461686969
7.9764115;0.06446116716;-0.03842790127;0.03777739853
7.9914865;0.05480068982;-0.04456806242;0.05196332842
8.0065625;0.05168967873;-0.02503836215;0.03869687319
8.0216385;0.04672042251;-0.03028682292;0.05310792089
8.0367145;0.04996562719;-0.01207099199;0.03101187766
8.0517895;0.05187386602;3.742218018e-05;0.02058395326
8.0668655;0.03407991171;0.02097045422;-0.01505102545
8.0819415;0.02931881636;0.01155234396;-0.024206011
8.0970175;0.04121614605;0.01684465885;-0.01268173367
8.1120935;0.04007038414;0.03639716327;-0.0229357034
8.1271685;0.03130862385;0.04281916022;-0.01379416645
8.1422445;0.03406353951;0.008246912956;0.02847213954
8.1573205;0.01689436018;0.02384786904;0.02165223956
8.1723965;0.01139739275;0.04433534324;0.0241627416
8.1874715;-0.01276154816;0.05432940423;0.02771141678
8.2025475;-0.009867761135;0.05493108273;-0.006174367368
8.2176235;0.007359597981;0.05726646066;-0.01477562159
8.2326995;0.004390381873;0.04939026117;-0.0233166495
8.2477755;-0.006471698284;0.0278163743;-0.04718059838
8.2628505;0.01043435633;0.01245398462;-0.04229554206
8.2779265;0.03457604796;-0.01794510484;0.0008370289207
8.2930025;0.02229046315;-0.0171224016;0.01349742025
8.3080785;0.01409646749;0.0005893993378;0.01284194738
8.3231545;0.01127226233;0.004369624257;0.01333896071
8.3382295;0.02640310228;0.02239659011;-0.01825939268
8.3533055;0.02718545973;0.05320849299;-0.02612506717
8.3683815;-0.0008618795872;0.06045728624;-0.04090390474
8.3834575;0.007906897366;0.05592803299;-0.04976828367
8.3985325;0.04241073221;-0.0007045894861;-0.0371491152
8.4136085;0.04185729325;-0.02129088163;-0.009916293025
8.4286845;0.03060929686;-0.02354264438;0.01854736805
8.4437605;0.02559735596;-0.03462545693;0.04337406099
8.4588365;0.01890901834;-0.01749896228;0.07123516649
8.4739115;-0.000801653266;-0.009721580744;0.07142753989
8.4889875;0.00159892112;0.003245789409;0.04072030216
8.5040635;0.009890272915;0.0154875201;0.02393440783
8.5191395;0.005172446966;0.02789823532;0.008128506839
8.5342155;-0.006881588101;0.02768364251;-0.001096352935
8.5492905;0.01432772487;0.03290403664;-0.0407767278
8.5643665;0.0305262664;0.02709073484;-0.03826797992
8.5794425;0.0531815958;0.04371027589;-0.01078080386
8.5945185;0.05293221205;0.05457264841;-0.02718604445
8.6095945;0.07633247674;0.05341548443;-0.02108798325
8.6246695;0.09765054792;0.01771063149;-0.0003262746334
8.6397455;0.07617226303;0.02440452397;-0.002879753709
8.6548215;0.04091033667;0.02700127244;0.008249544203
8.6698975;0.0148381868;0.01756152749;-0.006279909611
8.6849725;0.01749457687;-0.01278201342;0.06569668382
8.7000485;0.001360647082;0.006505027413;0.04467331231
8.7151245;-0.009285963178;0.0262463969;0.03231697619
8.7302005;-0.0009165510535;0.007307850122;0.01767262459
8.7452765;-0.005137071311;0.01024490654;0.001984544992
8.7603515;-0.004926279187;0.0164283371;0.003291690052
8.7754275;-0.02871976912;0.01223763764;0.0185678333
8.7905035;-0.001963202655;-0.003222985268;0.0261136651
8.8055795;0.01156988561;-0.009979442954;0.01402308494
8.8206545;0.008633998632;0.02874315798;-0.01990216792
8.8357305;0.002228958607;0.03842731655;-0.03413107485
8.8508065;0.02954598069;0.04163860738;-0.03629366755
8.8658825;0.03079494596;0.04924817383;-0.01937591851
8.8809585;0.03679418921;0.05980356753;-0.04372197032
8.8960335;0.06389077127;0.05606778145;-0.05947758526
8.9111095;0.08388240159;0.01227739871;-0.02190893233
8.9261855;0.09878169179;-0.005133270621;-0.01391988158
8.9412615;0.06347971201;-0.003121828437;-0.01169793963
8.9563375;0.07132550597;0.006599752307;0.009050905108
8.9714125;0.06626503319;-0.02322923362;0.02212791055
8.9864885;0.06071368665;0.00312299788;0.03413604498
9.0015645;0.05254600346;0.02021967173;0.01396958292
9.0166405;0.04704611242;0.01124945819;-0.004937973619
9.0317165;0.03915120184;-0.01575298369;0.01290246606
9.0467915;0.03297449559;-0.01595646679;0.002370753586
9.0618675;0.009903429151;-0.02273222029;0.01605294585
9.07694425;0.01558253735;-0.02691648781;0.01870436579
9.09202025;0.0165856272;-0.03425298929;0.025072276
9.10709525;0.0144288817;-0.01530684114;0.02158382714
9.12217125;0.03488244206;-0.01684465885;0.006267922819
9.13724725;0.02118066162;0.01009287894;-0.00155389756
9.15232325;0.04165234834;0.0422490567;-0.003004007041
9.16739925;0.02890658766;0.05108946204;-0.03210413754
9.18247425;0.05523192197;0.05325234711;-0.03967014223
9.19755025;0.05970211834;0.07719143271;-0.05725476623
9.21262625;0.06489561528;0.056272434;-0.04704815894
9.22770225;0.04987265646;0.03800456285;-0.05960242331
9.24277825;0.04174122602;0.01411693275;-0.03703100145
9.25785325;0.05142479986;-0.003703041673;-0.002591485977
9.27292925;0.0222349146;-0.02379348993;0.04136758894
9.28800525;0.02789969712;-0.01757439137;0.03185124546
9.30308125;0.02972139716;0.008366780877;0.002497053444
9.31815725;0.03803643018;0.007150560021;-0.006073795259
9.33323225;0.02535908192;0.0152355051;-0.01955659747
9.34830825;0.01201310456;0.007704291344;-0.03012310088
9.36338425;-0.009799641073;-0.01734108746;-0.0123341167
9.37846025;-0.0004554980993;-0.0130661881;0.001822577119
9.39353625;0.005564210415;-0.003321803212;0.04444468617
9.40861125;0.02207733214;0.01297438681;0.04992762029
9.42368725;0.01112842083;-0.005363650918;0.1097165698
9.43876325;0.02145752728;-0.02367479146;0.08818419814
9.45383925;0.01839007795;-0.04487621069;0.06851708829
9.46891425;-0.002892909944;-0.06332651496;0.03198631614
9.48399025;0.01857075691;-0.06540520012;-0.01390438646
9.49906625;0.02552543521;-0.02084824741;-0.04536562264
9.51414225;0.006859076321;0.09523886383;-0.07621728659
9.52921825;-0.02438815176;0.1264489621;-0.08204783767
9.54429325;0.02510560513;0.1653949267;-0.06131799638
9.55936925;0.02326987177;0.1374013817;0.002925654352
9.57444525;0.04474757195;0.1534075499;0.03362178236
9.58952125;0.05053836197;0.08998104751;0.08236738801
9.60459725;0.03552241981;-0.03321160018;0.220119895
9.61967225;-0.01138394415;-0.1221910197;0.2573792303
9.63474825;-0.08638442516;-0.2734725219;0.2541290554
9.64982425;-0.1429676387;-0.3489922357;0.3182107383
9.66490025;-0.2053983602;-0.4373448336;0.3687873995
9.67997525;-0.2324171743;-0.4514600122;0.3921695378
9.69505125;-0.2973838332;-0.3672115749;0.4378544185
9.71012725;-0.2826020721;-0.3214571124;0.4192348373
9.72520325;-0.2371086878;-0.2965818876;0.4431069723
9.74027925;-0.2325276867;-0.250378359;0.451142216
9.75535425;-0.2159683719;-0.1516756046;0.4458668581
9.77043025;-0.1888109788;-0.1213677317;0.455217433
9.78550625;-0.1849693581;-0.1122267795;0.4234600353
9.80058225;-0.1788961476;-0.118019616;0.3800424126
9.81565825;-0.1499135461;-0.1867741013;0.265147841
9.83073325;-0.1406117955;-0.2295511615;0.2197059122
9.84580925;-0.1670450109;-0.2630364114;0.2190302664
9.86088525;-0.1954507846;-0.2209341198;0.2167653474
9.87596125;-0.2177181512;-0.142829352;0.2490253133
9.89103725;-0.2255885035;-0.1048405766;0.3082114148
9.90611225;-0.2521649757;-0.04426400721;0.42444763
9.92118825;-0.2350086603;-0.0487213397;0.441336143
9.93626425;-0.2261703014;-0.1180131841;0.4813398689
9.95134025;-0.2227026102;-0.1743522763;0.478813287
9.96641625;-0.2647967157;-0.2877917683;0.4741887242
9.98149125;-0.2798304918;-0.298332544;0.4435384968
9.99656725;-0.2638474202;-0.3329837286;0.3816389948
10.01164325;-0.301375435;-0.3412136847;0.3937538409
10.02671925;-0.3548797971;-0.2064359486;0.4437463653
10.04179425;-0.3458873641;-0.109835853;0.4747111729
10.05687025;-0.2611843058;-0.1062094098;0.4726836509
10.07194625;-0.2834268218;-0.05568595827;0.4541523626
10.08702188;-0.2652244395;-0.07943793297;0.4325676584
10.10209788;-0.2420975322;-0.1021993893;0.3853730267
10.11717288;-0.1657276332;-0.1884785646;0.3795018375
10.13224888;-0.1740616697;-0.2076550931;0.395817908
10.14732487;-0.2771890122;-0.2319502741;0.4312461877
10.16240088;-0.3416428703;-0.2033100271;0.4340119207
10.17747688;-0.2790607059;-0.3226037514;0.4642744777
10.19255188;-0.3033748904;-0.2466987062;0.4669899246
10.20762788;-0.3277373144;-0.2652057284;0.4525502256
10.22270387;-0.3178961581;-0.2710032427;0.4572355995
10.23777988;-0.2662392238;-0.35454826;0.4778894269
10.25285488;-0.3165156305;-0.3437338346;0.4960274899
10.26793088;-0.3386938271;-0.3744094974;0.5955418378
10.28300687;-0.3745942694;-0.3572525972;0.6061258829
10.29808288;-0.3560235125;-0.4273595434;0.6212842047
10.31315888;-0.3358219671;-0.3837767369;0.6110252649
10.32823388;-0.3790466318;-0.3743855238;0.6038057077
10.34330988;-0.310237475;-0.3526438218;0.5482244146
10.35838587;-0.3284886816;-0.3961810201;0.6093517917
10.37346188;-0.2859677294;-0.3625957829;0.5673307765
10.38853788;-0.3616403478;-0.3735990733;0.627223514
10.40361288;-0.2891787279;-0.3373182696;0.5850969565
10.41868888;-0.3642879671;-0.3457984865;0.6744257471
10.43376487;-0.344422929;-0.3094352371;0.6179477835
10.44884088;-0.3850482139;-0.3491781771;0.6505112198
10.46391687;-0.3296221644;-0.3415744579;0.628313435
10.47899188;-0.3607898703;-0.3963815796;0.6759667808
10.49406787;-0.3887635347;-0.4038391185;0.6613221368
10.50914388;-0.3711452892;-0.4047752577;0.676974256
10.52421988;-0.3922519836;-0.4265754318;0.6415474382
10.53929488;-0.4021413794;-0.4130993539;0.6399210352
10.55437088;-0.4289508632;-0.3753690255;0.6585213205
10.56944687;-0.4501610532;-0.2728392684;0.57886821
10.58452288;-0.405499143;-0.287763117;0.5984841567
10.59959888;-0.4617490652;-0.1337421942;0.6059756094
10.61467388;-0.4921081012;-0.239489674;0.6195636615
10.62974988;-0.4849677739;-0.218174234;0.5627132303
10.64482587;-0.4826902834;-0.2575230718;0.5765106127
10.65990188;-0.4969303;-0.3202783138;0.579609637
10.67497787;-0.5211389422;-0.3227850151;0.5659198433
10.69005288;-0.4694834697;-0.3465434217;0.5635891432
10.70512887;-0.4547180808;-0.3720378667;0.5830638796
10.72020488;-0.4707122621;-0.4111311811;0.6451504925
10.73528088;-0.4843663877;-0.4151651752;0.6802086434
10.75035687;-0.5132528025;-0.3617070061;0.7589270765
10.76543188;-0.5221186432;-0.3655053574;0.7793397063
10.78050787;-0.4955886564;-0.4207100898;0.7707100931
10.79558388;-0.4938824388;-0.4308298659;0.7527971479
10.81065988;-0.4082663378;-0.4406321383;0.7905801013
10.82573587;-0.4733376619;-0.4518248785;0.7486526415
10.84081087;-0.4490848732;-0.435790059;0.7298941889
10.85588688;-0.5265660354;-0.4350182265;0.6992892775
10.87096288;-0.4594628039;-0.4522084558;0.6500788182
10.88603887;-0.5954263553;-0.4240020722;0.6670719963
10.90111488;-0.5072240308;-0.4686210054;0.674730387
10.91618987;-0.5262187108;-0.4615499675;0.6738685074
10.93126588;-0.4611608353;-0.4699319512;0.6968705767
10.94634188;-0.4552808753;-0.460312112;0.7231637514
10.96141787;-0.4037639818;-0.458516432;0.7234935343
10.97649288;-0.4266455984;-0.4646408057;0.7458313599
10.99156887;-0.4040317842;-0.4704465061;0.7437085283
11.00664488;-0.4211778671;-0.4620230073;0.743534866
11.02172088;-0.4425359917;-0.4148248672;0.7344690505
11.03679687;-0.4481311923;-0.4231770301;0.7422446778
11.05187187;-0.4251297078;-0.4062241977;0.749477976
11.06694788;-0.4579436973;-0.4221812493;0.7586563504
11.08202392;-0.4221034813;-0.4122246104;0.7151442951
11.09709992;-0.4453382698;-0.4489673442;0.7513403141
11.11217592;-0.4549958235;-0.48953825;0.7615337652
11.12725092;-0.4592604902;-0.4788647425;0.783063798
11.14232692;-0.5074769229;-0.4241213554;0.7322462314
11.15740292;-0.5578158948;-0.4040426016;0.7383355218
11.17247892;-0.5381680807;-0.4278922248;0.7205974084
11.18755492;-0.551992068;-0.4111686033;0.7571597555
11.20262992;-0.5590873718;-0.2972595799;0.7166707107
11.21770592;-0.5376897785;-0.261260612;0.7153112331
11.23278192;-0.4417928106;-0.3241281205;0.6744310096
11.24785792;-0.4240839332;-0.3486682999;0.6417383498
11.26293392;-0.42558696;-0.3645347196;0.6791041043
11.27800892;-0.422920922;-0.3646317834;0.7100142404
11.29308492;-0.4680102637;-0.3631050754;0.8157976806
11.30816092;-0.4718021831;-0.3491039175;0.8306890771
11.32323692;-0.4209121111;-0.3573765582;0.8669795287
11.33831292;-0.4143889573;-0.3639154994;0.8592249513
11.35338792;-0.4427684185;-0.4194634634;0.8485985139
11.36846392;-0.4482595387;-0.4231425315;0.8014714175
11.38353992;-0.4533194268;-0.5667910784;0.787846528
11.39861592;-0.4287605363;-0.5844642878;0.7959113002
11.41369192;-0.4329304782;-0.5909435874;0.8092952845
11.42876692;-0.4415282241;-0.5956903571;0.8078975075
11.44384292;-0.4112118727;-0.5658444142;0.8069678003
11.45891892;-0.3705377635;-0.565973053;0.791745159
11.47399492;-0.4615403196;-0.5105057806;0.7737608778
11.48907092;-0.3951343685;-0.5241391486;0.7410421979
11.50414592;-0.4024699929;-0.4218222302;0.7150606799
11.51922192;-0.3827140054;-0.4003155863;0.705543167
11.53429792;-0.3693314829;-0.3771986192;0.7249448133
11.54937392;-0.3681567773;-0.3613965189;0.7083705881
11.56444992;-0.3431847811;-0.3936918604;0.7645190611
11.57952492;-0.3272505337;-0.4071650147;0.763275066
11.59460092;-0.403038927;-0.4748196387;0.8064544147
11.60967692;-0.3927858344;-0.4614178205;0.7760284281
11.62475292;-0.3681240329;-0.5528495622;0.7632882223
11.63982892;-0.3525166449;-0.6054674864;0.7939182767
11.65490392;-0.4571028677;-0.5675541401;0.7840771204
11.66997992;-0.4923457906;-0.5057145721;0.765188275
11.68505592;-0.5115495086;-0.3803654712;0.7983349711
11.70013192;-0.5097117287;-0.3395431352;0.8201240355
11.71520792;-0.4831776488;-0.2172088587;0.785744454
11.73028292;-0.4366004831;-0.2153587997;0.7831667089
11.74535892;-0.3678337187;-0.3458411711;0.802370427
11.76043492;-0.3138528085;-0.4137232518;0.7944033033
11.77551092;-0.2805140314;-0.5308231008;0.7899132264
11.79058692;-0.2862732464;-0.5659379697;0.7939621308
11.80566192;-0.3580805629;-0.6461366254;0.7992798811
11.82073792;-0.3611635074;-0.6339533669;0.796129109
11.83581392;-0.4395539117;-0.5247466743;0.8195960319
11.85088992;-0.451340729;-0.4597653973;0.8217747045
11.86596492;-0.4116147459;-0.3754216504;0.8312024626
11.88104092;-0.3807136729;-0.3760016942;0.8567156187
11.89611692;-0.3243590856;-0.4431078494;0.8114537841
11.91119292;-0.316365357;-0.4965268421;0.8031595087
11.92626892;-0.2554601741;-0.5407540119;0.7541794297
11.94134492;-0.3162077746;-0.5633862448;0.7651327264
11.95641992;-0.3475856879;-0.5098508924;0.7609233159
11.97149592;-0.3691952428;-0.4405187023;0.7729375899
11.98657192;-0.4195956105;-0.3189346236;0.8268974501
12.00164792;-0.4215225604;-0.2704641294;0.8833669353
12.01672292;-0.3853712726;-0.2859919953;0.8639272821
12.03179892;-0.340197731;-0.37080235;0.8528105557
12.04687492;-0.3098182297;-0.4998287648;0.8255666238
12.06195092;-0.3341955641;-0.5439413291;0.8180412573
12.07702692;-0.3577820626;-0.4902399158;0.845851492
12.09210213;-0.3570251405;-0.4028749126;0.8728214818
12.10717813;-0.3504993555;-0.2606244349;0.9241512644
12.12225412;-0.3377992031;-0.2103781414;0.8924423987
12.13733013;-0.3144389918;-0.2553771436;0.8489168948
12.15240613;-0.3118711871;-0.3364949816;0.8242077309
12.16748113;-0.3318873757;-0.4568967533;0.8274035266
12.18255713;-0.3560293597;-0.4399170238;0.8197998074
12.19763312;-0.3748091546;-0.3623829442;0.8418958506
12.21270913;-0.3626954779;-0.3397091961;0.8536385214
12.22778513;-0.3366642585;-0.4041244626;0.8128828436
12.24286013;-0.3522810021;-0.4432329798;0.8311372662
12.25793613;-0.4287555662;-0.5392740816;0.7985419625
12.27301212;-0.4196242619;-0.577189182;0.7957502094
12.28808813;-0.3850900215;-0.542190088;0.8446849725
12.30316412;-0.3933264095;-0.4608319294;0.8784491345
12.31823913;-0.3296774206;-0.3975755811;0.9110160792
12.33331512;-0.3396513087;-0.4435598391;0.8844138792
12.34839113;-0.2808546317;-0.5488869041;0.8322213399
12.36346713;-0.3309942135;-0.5876451731;0.7973883069
12.37854312;-0.4334257373;-0.5188228601;0.7828217232
12.39361813;-0.3906285042;-0.3822383344;0.7970292878
12.40869412;-0.3619625294;-0.170070945;0.8591846055
12.42377013;-0.3770249569;-0.09160540402;0.8297696024
12.43884613;-0.2716689482;-0.1577806824;0.8210250914
12.45392212;-0.2849637625;-0.2865609294;0.807785241
12.46899712;-0.365614408;-0.4970560151;0.7830281299
12.48407313;-0.3478976369;-0.5153513682;0.8144428807
12.49914913;-0.3708570215;-0.3952016115;0.9059626231
12.51422512;-0.3439092511;-0.3368920076;0.8983360997
12.52930113;-0.2829312703;-0.3782481945;0.8924043918
12.54437612;-0.2804193065;-0.4750529426;0.8863729888
12.55945213;-0.4449318883;-0.5755747658;0.8572497618
12.57452813;-0.4458075088;-0.5273656422;0.8523170507
12.58960412;-0.3843626279;-0.2761014301;0.9643672442
12.60468013;-0.3555121735;-0.1466353047;0.9720996022
12.61975512;-0.2009737721;-0.1494103932;0.9317967913
12.63483113;-0.1599821591;-0.2671177679;0.8610212159
12.64990713;-0.2571698999;-0.5325673252;0.7974938491
12.66498312;-0.3826850617;-0.5385993129;0.793391735
12.68005913;-0.3644429183;-0.2955954623;0.8768075287
12.69513413;-0.2615012249;-0.1962243712;0.9086491263
12.71021013;-0.1482450432;-0.2491270548;0.9508534518
12.72528612;-0.1736286834;-0.4201142585;0.9349855703
12.74036213;-0.3692958149;-0.7520010495;0.9554590112
12.75543813;-0.5074795541;-0.7349967617;0.9529178113
12.77051313;-0.3862074244;-0.4477248108;0.950398246
12.78558913;-0.2736663571;-0.3847175539;0.9928230116
12.80066512;-0.1635185552;-0.4528686064;1.099563056
12.81574113;-0.1655837917;-0.6108334762;0.9580332479
12.83081713;-0.2925467241;-0.800706017;1.033615234
12.84589213;-0.380057323;-0.7552070779;1.035395419
12.86096812;-0.3309199539;-0.4406748229;1.049095446
12.87604413;-0.1622903475;-0.314618209;1.068629531
12.89112013;-0.1198366383;-0.4592245299;1.175419862
12.90619612;-0.2388061345;-0.5201490086;1.203056727
12.92127213;-0.3491235057;-0.5460691309;1.124870683
12.93634712;-0.3112195149;-0.5140293127;1.064421875
12.95142313;-0.1001122257;-0.5535108823;0.9730731636
12.96649913;-0.0517525363;-0.6971605986;0.9641307244
12.98157512;-0.2787420326;-0.8289545006;1.154235692
12.99665013;-0.4430043536;-0.7700128126;1.232953833
13.01172612;-0.4089492926;-0.5315645278;1.174096345
13.02680213;-0.2543866253;-0.427060166;1.125951833
13.04187813;-0.1707232019;-0.6096441525;1.104657151
13.05695412;-0.2947946861;-0.759703002;1.195729873
13.07202912;-0.5256380823;-0.7022868526;1.199766206
13.08710425;-0.5209091467;-0.6242329556;1.187463664
13.10218025;-0.3106821558;-0.4484019184;1.066083069
13.11725625;-0.2459710202;-0.5514427221;1.045074608
13.13233225;-0.5212453616;-0.7509988368;1.213909744
13.14740825;-0.6577334082;-0.6593811536;1.198842931
13.16248325;-0.6182000908;-0.5527425581;1.106705138
13.17755925;-0.4264301285;-0.5167079222;1.083026253
13.19263525;-0.2295347893;-0.7362615144;1.028040791
13.20771125;-0.3694627529;-0.7784439129;1.196331552
13.22278725;-0.7451671162;-0.4517172897;1.342295888
13.23786225;-0.7247059545;-0.3216833997;1.331691378
13.25293825;-0.2526426932;-0.2953680056;1.09979636
13.26801425;-0.126128827;-0.5276387072;1.09045631
13.28309025;-0.3770401597;-0.7929572868;1.144217657
13.29816625;-0.6262718797;-0.8513680476;1.109339601
13.31324125;-0.4879206178;-0.7187093425;0.9916728643
13.32831725;-0.2088651744;-0.6034156984;0.9933042374
13.34339325;-0.3775272328;-0.4875040036;1.073936172
13.35846925;-0.524775618;-0.4294551855;1.186236919
13.37354525;-0.8066500041;-0.2447749722;1.284525398
13.38862025;-0.6305309916;-0.1736318994;1.225017992
13.40369625;-0.01527760506;-0.225295558;1.211593077
13.41877225;-0.05585669696;-0.1572708052;1.305265764
13.43384825;-0.4534594676;-0.02291991591;1.3180469
13.44892425;-0.4313666403;-0.05882532835;1.271214211
13.46399925;-0.01160438418;-0.1362056261;1.275654879
13.47907525;0.04026802003;-0.1816952097;1.157679994
13.49415125;-0.03458920419;-0.3617227936;1.040406775
13.50922725;-0.08081729114;-0.4640210009;1.052307321
13.52430325;-0.1510970226;-0.5194619608;1.121719326
13.53937925;-0.04290043652;-0.5922346526;1.10014924
13.55445425;-0.2819965929;-0.5378801054;1.037653906
13.56953025;-0.3248362184;-0.5230299318;0.9961158711
13.58460625;-0.3252484471;-0.5354271984;1.043210515
13.59968225;-0.2025080815;-0.4680222505;1.075120525
13.61475825;-0.4309941727;-0.3644809252;1.177947613
13.62983325;-0.4440738094;-0.3206776786;1.145382715
13.64490925;-0.1560870364;-0.3999273312;1.047093359
13.65998525;8.273810148e-05;-0.4704330575;0.9676258975
13.67506125;-0.1806377408;-0.5965323561;1.010150358
13.69013725;-0.190545263;-0.5822522861;0.9591266772
13.70521225;0.05139527142;-0.6701318443;0.9296330291
13.72028825;0.1329542819;-0.676898827;0.9260045394
13.73536425;-0.06999292552;-0.670306676;1.013651086
13.75044025;-0.1102091977;-0.6617440134;1.002589908
13.76551625;0.02792162418;-0.7402499002;1.086163869
13.78059225;-0.05867973268;-0.6827466273;1.04578446
13.79566725;-0.3406193152;-0.6908742571;1.14473806
13.81074325;-0.355379734;-0.5317241567;1.09158453
13.82581925;-0.264825367;-0.3076834112;1.187558974
13.84089525;-0.2203637239;-0.195267182;1.149799117
13.85597125;-0.2022464186;-0.1595401096;1.084906425
13.87104625;-0.1018102571;-0.2964380461;0.9660872027
13.88612225;0.1027586755;-0.5753572494;0.9178929895
13.90119825;0.05066787779;-0.6133232206;0.8622058618
13.91627425;-0.05471853644;-0.5890666312;0.8437766075
13.93135025;-0.1156637728;-0.5420094091;0.8794718125
13.94642525;-0.1634910733;-0.433759321;1.040354151
13.96150125;-0.2710397878;-0.3130394608;1.062669464
13.97657725;-0.3834516317;-0.2255452341;1.000845391
13.99165325;-0.3658807486;-0.2672557622;0.9764125085
14.00672925;-0.4011885756;-0.4438399208;1.011257821
14.02180425;-0.4417586043;-0.4320367312;0.9885416803
14.03688025;-0.3028743687;-0.3579244423;0.9154751658
14.05195625;-0.2960892597;-0.3804923558;0.9954551357
14.06703225;-0.3502376926;-0.3060637325;1.085138268
14.08210892;-0.2813960838;-0.3114227057;1.031197118
14.09718492;-0.09724095047;-0.4734882277;0.9263258439
14.11225992;-0.1035822558;-0.5431443536;0.9565378225
14.12733592;-0.2119273612;-0.5288859183;1.038245645
14.14241192;-0.2299093035;-0.4496181393;1.027139443
14.15748792;-0.2648271212;-0.3722407651;1.018594322
14.17256392;-0.2144805479;-0.3215594387;1.023635207
14.18763892;-0.1990535465;-0.3174576169;0.9774413261
14.20271492;-0.2337468311;-0.359338299;1.015120784
14.21779092;-0.3473798659;-0.426413464;1.015368121
14.23286692;-0.3623215485;-0.4837892675;0.9295076063
14.24794292;-0.294352929;-0.6644734937;0.8738652098
14.26301792;-0.3137583759;-0.6822735876;0.9074296895
14.27809392;-0.2648402774;-0.6091471392;0.8788873833
14.29316992;-0.2192621085;-0.5832574224;0.8969988415
14.30824592;-0.2498094249;-0.6672655392;0.9333471805
14.32332192;-0.2537542489;-0.7238163006;0.9038956323
14.33839692;-0.2672885066;-0.8416295099;0.7750987208
14.35347292;-0.3563474482;-0.8656229746;0.8602192703
14.36854892;-0.4118346012;-0.4970700485;1.028717607
14.38362492;-0.4176315308;-0.2619839126;0.9881402689
14.39870092;-0.3211135885;-0.08671537757;1.043365467
14.41377692;-0.3260851836;-0.100566262;1.01373207
14.42885192;-0.04813310981;-0.3291380149;0.7650403404
14.44392792;0.07357434511;-0.4555594951;0.7707963395
14.45900392;-0.1238279477;-0.3658643764;0.9006577367
14.47407992;-0.07555099636;-0.3051860654;0.851230638
14.48915592;-0.07705080718;-0.3681488836;0.7445844412
14.50423092;-0.04131525636;-0.5395722896;0.7898024216
14.51930692;-0.1597418386;-0.6962075025;0.6526238188
14.53438292;-0.187431913;-0.8074648136;0.6491979352
14.54945892;-0.3315225095;-0.8529333472;0.7412991831
14.56453492;-0.384822219;-0.7948693264;0.7285654092
14.57960992;-0.3485314751;-0.7576558918;0.7584294784
14.59468592;-0.4482148075;-0.6435357839;0.8495255899
14.60976192;-0.6053473261;-0.2498866081;0.859005096
14.62483792;-0.5424970669;-0.1466510922;0.8708158869
14.63991392;-0.5695641205;0.03917868376;0.9570453608
14.65498992;-0.5728438237;0.1115128344;0.8954841202
14.67006492;-0.3905624306;-0.1814607364;0.784949525
14.68514092;-0.2651150966;-0.36810386;0.760711062
14.70021692;-0.2549190143;-0.4730514407;0.5571902427
14.71529292;-0.1605505085;-0.5088662213;0.5652374732
14.73036892;-0.5135977882;-0.3917792362;0.7396412051
14.74544392;-0.5338569286;-0.2848301536;0.6612665883
14.76051992;-0.2668438259;-0.328184334;0.6720146477
14.77559592;-0.3362301028;-0.4010125744;0.7655095795
14.79067192;-0.487500203;-0.4565359801;0.7839686546
14.80574792;-0.4004158661;-0.5074623048;0.7909247947
14.82082292;-0.4107400024;-0.4987604785;0.864761095
14.83589892;-0.5056946915;-0.4815918839;0.8627154467
14.85097492;-0.460845378;-0.360033533;0.8971482378
14.86605092;-0.4908427638;-0.3270031965;0.8985904536
14.88112692;-0.5829712012;-0.4407052284;0.761481725
14.89620292;-0.4035830104;-0.4342417163;0.7180290189
14.91127792;-0.4791433623;-0.3488630122;0.7278482482
14.92635392;-0.4880825856;-0.3214547735;0.6449788767
14.94142992;-0.1702826142;-0.329125151;0.6782340387
14.95650592;-0.2400539303;-0.3814659172;0.7200939631
14.97158192;-0.4417767307;-0.4386312211;0.6393772441
14.98665692;-0.4433294588;-0.4190676069;0.6768912256
15.00173292;-0.5270077926;-0.2702378422;0.7234698531
15.01680892;-0.584715718;-0.2844255263;0.7592437032
15.03188492;-0.5894098628;-0.3602691758;0.7453258681
15.04696092;-0.5358370882;-0.4767188144;0.6253904119
15.06203592;-0.4633631891;-0.8603815305;0.6058191964
15.07711192;-0.4859273019;-0.8356823069;0.6285020077
15.0921875;-0.7885739216;-0.7354966986;0.5443599898
15.1072635;-0.7673923829;-0.6105504709;0.5075286707
15.1223395;-0.7432255483;-0.393310622;0.4631547359
15.1374155;-0.7562478822;-0.3627799702;0.4687128067
15.1524905;-0.759863508;-0.205534308;0.6060907996
15.1675665;-0.7934177551;-0.1055083287;0.605413692
15.1826425;-0.931418184;-0.09104056299;0.6317776179
15.1977185;-0.7507012135;-0.05285415173;0.6425122288
15.2127945;-0.5071029934;-0.2678802449;0.5405902898
15.2278695;-0.4499718958;-0.3859349442;0.5567552099
15.2429455;-0.6278772327;-0.382560516;0.6778671259
15.2580215;-0.833726998;-0.3543974018;0.6767000216
15.2730975;-0.9126515454;-0.2432453406;0.5457226834
15.2881735;-0.773464424;-0.1919097108;0.5030777702
15.3032495;-0.7735325441;-0.2120486909;0.5589604872
15.3183245;-0.7834277871;-0.1509979123;0.5966726893
15.3334005;-0.8298271975;-0.1904900068;0.3886462981
15.3484765;-0.715885722;-0.3166202956;0.3026015961
15.3635525;-0.4374334189;-0.4038595837;0.2273929542
15.3786285;-0.5174136811;-0.4946797067;0.2134929532
15.3937035;-0.7565627548;-0.4610593861;0.3960096967
15.4087795;-0.8004411381;-0.3654562408;0.3988555366
15.4238555;-0.7535911998;-0.3372422558;0.4433943629
15.4389315;-0.7148566121;-0.2674978369;0.4806133524
15.4540075;-0.5732677469;-0.5476122111;0.4093971893
15.4690835;-0.408427721;-0.8035582888;0.3659792742
15.4841585;-0.2196834004;-1.00959955;0.4587973908
15.4992345;-0.3604884464;-0.9309872442;0.5379262984
15.5143105;-0.5875448933;-0.5033546358;0.49478291
15.5293865;-0.5828679979;-0.3747708553;0.4641052008
15.5444625;-0.5201302975;-0.5155215222;0.3944505367
15.5595385;-0.3973873007;-0.4459630448;0.4114709044
15.5746135;-0.6583154985;-0.5949740732;0.4377827901
15.5896895;-0.6898454395;-0.5209383827;0.5211453742
15.6047655;-0.6601357368;-0.5736042541;0.2259407982
15.6198415;-0.6582339299;-0.7591703206;0.08669169635
15.6349175;-0.5016264912;-0.5226814377;0.2424860796
15.6499925;-0.7127361193;-0.3230469704;0.3415323579
15.6650685;-1.087956918;-0.1579543447;0.5520291978
15.6801445;-0.9746413869;-0.05235363007;0.4830800003
15.6952205;-0.7758457026;-0.3548061222;0.3405623049
15.7102965;-0.5880512622;-0.3115419888;0.3846628824
15.7253715;-0.7951152018;-0.3954793543;0.4252805659
15.7404475;-0.8070379668;-0.4578556967;0.4338230556
15.7555235;-0.6952248779;-0.4128596181;0.2817749834
15.7705995;-0.7792233467;-0.4411917168;0.3667154387
15.7856755;-0.8758886388;-0.1220337296;0.3887202653
15.8007515;-0.9598207417;-0.1100253028;0.3449801686
15.8158265;-0.8657630154;-0.3304015982;0.314862915
15.8309025;-0.7448595527;-0.4512395722;0.1585437441
15.8459785;-0.5358493674;-0.6372751701;0.1381718986
15.8610545;-0.6095386103;-0.6657300603;0.1996829993
15.8761305;-0.9714537773;-0.4417641592;0.253154617
15.8912065;-0.9682997891;-0.367152518;0.2464162856
15.9062815;-0.8686994871;-0.2526827466;0.2308200073
15.9213575;-0.8371154594;-0.310680694;0.2366441265
15.9364335;-0.6993062344;-0.4151412016;0.1587266158
15.9515095;-0.7501483592;-0.5214582002;0.1183023289
15.9665855;-0.7345365858;-0.3726910007;0.1018459252
15.9816605;-0.7930523041;-0.2554695296;0.03344285756
15.9967365;-0.8264665103;-0.1880903095;0.1901698717
16.0118125;-0.8167227101;-0.0644339776;0.2414616475
16.0268885;-0.8637375399;0.01267910242;0.3710645977
16.0419645;-0.8677958;-0.03256022036;0.3971575052
16.0570405;-0.7101922882;-0.4948633093;0.1352531147
16.0721155;-0.543545765;-0.786348179;0.07067032546
16.08719542;-0.4836895725;-1.005385462;0.08188674688
16.10227142;-0.6194294679;-1.002938402;0.1531871098
16.11734742;-0.8191425803;-0.7278064406;0.1159806919
16.13242342;-0.84786118;-0.7097438067;0.1000753883
16.14749842;-0.6900211483;-0.5943542683;0.1828628987
16.16257442;-0.8193823162;-0.4679988617;0.2720376152
16.17765042;-1.086150713;-0.05700625956;0.3362774652
16.19272642;-1.122331529;0.0880935663;0.2934903185
16.20780242;-0.9880601621;0.001978113055;0.1348881023
16.22287842;-0.8120434758;-0.04790740728;0.1192625879
16.23795342;-0.8102056959;-0.1611194426;0.1125498381
16.25302942;-0.8271216908;-0.137272743;0.1880677977
16.26810542;-0.7410363507;-0.1373300457;0.02272447273
16.28318142;-0.6413296294;-0.2441136521;0.02478035375
16.29825742;-0.7816876557;-0.5330520594;-0.1104012787
16.31333342;-0.8079217735;-0.5879387033;-0.0682792528
16.32840842;-1.000505376;-0.5757724017;-0.05310046569
16.34348442;-1.13509834;-0.4226922959;0.02800406992
16.35856042;-1.318328151;0.03089084029;0.09984676212
16.37363642;-1.337792071;0.1441525769;0.07270252526
16.38871242;-0.9555113438;0.002654051185;0.06280377388
16.40378842;-0.7667988905;-0.1792048806;0.003441671133
16.41886342;-0.8473907715;-0.3164928263;0.1300729202
16.43393942;-0.8597395062;-0.2242027134;0.04324366808
16.44901542;-0.7739503276;-0.3005562401;-0.01660638481
16.46409142;-0.6187295562;-0.2293646353;0.03251987457
16.47916742;-0.6852547905;-0.2186911279;0.04734709784
16.49424242;-0.6254538542;-0.3096059757;0.0706185776
16.50931842;-0.6187620082;-0.5655608243;0.03277247429
16.52439442;-0.6219291526;-0.6866379493;0.04042063236
16.53947042;-0.7345956427;-0.4992703557;0.06236523271
16.55454642;-0.8710918754;-0.321054824;0.1098627502
16.56962242;-0.8013378087;-0.03605217755;0.1584455109
16.58469742;-0.7164909089;-0.1733295983;0.115885967
16.59977342;-0.5224680144;-0.4946101248;0.085321109
16.61484942;-0.579205302;-0.5772727972;0.01892392874
16.62992542;-0.5974509537;-0.5239456058;0.1573883343
16.64500142;-0.499699249;-0.365863207;0.1248988652
16.66007642;-0.5715208912;-0.08997052252;0.263775938
16.67515242;-0.5435033727;0.02537165344;0.207956517
16.69022842;-0.5149441096;-0.4920391041;-0.02828853697
16.70530442;-0.3369481409;-0.8025157303;-0.2008933729
16.72038042;-0.2080965579;-1.34373635;-0.1557569611
16.73545642;-0.298940362;-1.215293487;-0.1278788987
16.75053142;-0.90957591;-0.8019935739;-0.08318614438
16.76560742;-0.9666982368;-0.3067168665;0.03583568439
16.78068342;-1.18546187;0.486772517;0.2574491045
16.79575942;-1.375230331;0.6130443084;0.4062879324
16.81083542;-1.051853577;0.7326824337;0.1799075697
16.82591142;-0.7334723926;0.3947525454;0.2143998563
16.84098642;-0.6470204321;-0.1004428858;0.3824780703
16.85606242;-0.5788109073;-0.184044621;0.2053711706
16.87113842;-0.3362692791;-0.6151838046;-0.08200383738
16.88621442;-0.2971870744;-0.8067882907;0.004771912694
16.90129042;-0.257913081;-0.6762521249;0.05930596948
16.91636642;-0.3234632921;-0.6620784742;0.0151311323
16.93144142;-0.4101669753;-0.4794898099;0.1601096284
16.94651742;-0.5601965886;-0.4637093443;0.1436976635
16.96159342;-0.9483248234;-0.2600362051;0.1724279577
16.97666942;-0.9406506452;0.06473452449;0.12288333
16.99174542;-0.9502447566;0.3211863863;0.3884732205
17.00682142;-0.7902044177;0.314242233;0.3142407712
17.02189642;-0.2535384867;-0.31395455;0.04023352146
17.03697242;0.0800787878;-0.5936794996;-0.03510375917
17.05204842;-0.1848106062;-0.8586893463;0.08300648868
17.06712442;-0.4402248797;-0.7830415785;0.02854552209
17.08220042;-0.6721690142;-0.492612716;-0.006700032055
17.09727267;-0.6268735582;-0.3270786256;0.007037124038
17.11234767;-0.7245413554;-0.1326288843;0.01265030488
17.12742367;-0.6561280552;-0.09168024838;0.1021473491
17.14249967;-0.8235999128;-0.1529508823;0.05211272478
17.15757567;-0.8379168203;-0.1158228171;0.07703385025
17.17265167;-0.6408890417;0.0194326365;-0.09622119606
17.18772667;-0.5423736906;-0.04140471876;-0.01091996759
17.20280267;-0.5025699395;-0.1384953958;0.08799767196
17.21787867;-0.5230676463;-0.2619178391;0.1065333456
17.23295467;-0.3642941067;-0.4262169975;-0.0557900387
17.24803067;-0.4451251388;-0.5327614528;0.0142932263
17.26310667;-0.8129348838;-0.308099733;0.09812212586
17.27818167;-0.9857841334;-0.2024142337;0.08222120762
17.29325767;-1.027116931;0.04775947273;0.07427016377
17.30833367;-1.061714906;0.004836232066;0.168020765
17.32340967;-0.5948366636;-0.0375122273;0.1881397185
17.33848567;-0.5126987788;-0.3242479885;0.1681594902
17.35356167;-0.05035358995;-0.5867604893;0.0804955481
17.36863667;-0.2425120997;-0.7512695628;0.1199614763
17.38371267;-0.5095424518;-0.7435097229;0.07368017972
17.39878867;-0.5890946978;-0.496256116;0.1238978219
17.41386467;-0.748295669;0.2830906069;0.3115605538
17.42894067;-0.8881499577;0.615663861;0.4114516085
17.44401667;-0.7621725735;0.9044081408;0.3263228729
17.45909167;-0.6037659466;0.730871551;0.1981293941
17.47416767;-0.338241545;0.07181024015;0.1912950222
17.48924367;-0.366864835;-0.1918781358;0.0937048468
17.50431967;-0.2383099982;-0.4459028184;-0.1812823963
17.51939567;-0.1530467767;-0.4573855805;-0.08099972427
17.53447167;-0.2914009622;-0.3754421157;-0.00392231226
17.54954667;-0.4080955991;-0.3328726315;0.2976490045
17.56462267;-0.6757118422;-0.06734881461;0.3246029145
17.57969867;-0.9075077498;-0.3394542575;0.3888866186
17.59477467;-0.06904479951;-0.7149226856;0.07006133795
17.60985067;0.03493799061;-1.069065149;0.06560342073
17.62492667;-0.1251309997;-0.8381890082;0.5071855853
17.64000167;-0.851993992;-0.2947920549;0.6881354213
17.65507767;-0.99901609;0.5899366969;0.2530587226
17.67015367;-0.7311048549;0.6721877253;0.02602405652
17.68522967;-0.5006374347;0.2825169951;-0.01332054198
17.70030567;-0.3823921162;0.2537878704;0.03565573633
17.71538167;-0.3841597295;-0.2244781172;-0.2413432413
17.73045667;-0.2243763757;-0.3617181158;-0.01604826808
17.74553267;-0.08437590659;-0.4375547487;-0.04319338202
17.76060867;-0.05096345454;-0.6889563704;-0.2442417061
17.77568467;-0.2827105379;-0.6160135245;0.2364302646
17.79076067;-0.6331470358;-0.04567786396;0.5160137115
17.80583667;-1.383812874;0.5734457946;0.4655428849
17.82091167;-1.282533836;0.4758920181;0.3589743099
17.83598767;-0.3728222707;0.001500395536;0.1381626892
17.85106367;-0.111976811;-0.3815056783;0.1254140049
17.86613967;-0.4758908486;-0.4362332779;0.3772563605
17.88121567;-0.7810947481;-0.3293993855;0.2761008453
17.89629167;-0.1985930783;-0.5777809203;-0.2598949948
17.91136667;0.1982787904;-0.9641637611;-0.3551253802
17.92644267;0.1068833014;-1.029742039;0.0887518166
17.94151867;-0.3800163925;-0.7045842236;0.186359826
17.95659467;-0.9866919136;-0.2464309037;0.2427872112
17.97167067;-0.8934378871;-0.1019076133;0.2960823892
17.98674667;-0.3252507859;0.08346666455;0.04816497713
18.00182167;-0.118296774;-0.1044985145;0.1083240554
18.01689767;-0.2399173978;0.0726276809;0.4525972956
18.03197367;-0.4712083983;0.1044289327;0.4068033645
18.04704967;-0.0358922562;-0.2937471575;0.1748890507
18.06212567;0.2455684394;-0.3260541934;-0.01051417083
18.07720167;0.2331662026;-0.599829601;0.07492885262
18.09228042;0.1297029376;-0.5362668586;0.1523626524
18.10735642;-0.4362119356;-0.4946925706;0.2613787258
18.12243242;-0.4115226522;-0.3939830518;0.1079925182
18.13750842;-0.5493731001;-0.3777266228;0.09391417712
18.15258442;-0.4567502806;-0.2802552921;-0.004005635083
18.16766042;-0.4998489377;-0.03385771751;0.226194275
18.18273542;-0.5770155197;0.1217249966;0.2831981957
18.19781142;-0.3082295412;0.3355915868;0.2964210892
18.21288742;-0.08708258271;0.2032860535;0.1095721436
18.22796342;-0.3222467789;-0.1580835682;0.2951721239
18.24303942;-0.6943884337;0.231725741;0.4787445822
18.25811542;-1.130761168;1.06425289;0.6902325252
18.27319042;-0.87380703;1.315496053;0.3423126689
18.28826642;0.03551511079;0.6260029078;0.297835823
18.30334242;0.2326229963;-0.0492797488;0.3537822747
18.31841842;0.6910207298;-1.406387511;-0.3393700576
18.33349442;0.451330204;-1.815291488;-0.1356653434
18.34857042;-0.6239104816;-1.209738048;0.1117227495
18.36364542;-0.8641886526;-0.5442997634;0.006953801215
18.37872142;-1.051986017;0.4405227953;0.1875970969
18.39379742;-1.207276078;0.904907493;0.5244835496
18.40887342;-1.317841078;1.257035006;0.3950209326
18.42394942;-1.114782189;0.9869059217;0.1986749393
18.43902542;-0.4722418937;0.5552469206;0.2653732511
18.45410042;-0.4292601809;0.2043555093;0.2249353695
18.46917642;0.04399708182;-0.1583525401;-0.05984362096
18.48425242;0.2916140932;-0.2963298726;-0.07279111058
18.49932842;0.23896781;-0.7005461365;0.0284575215
18.51440442;0.1341494527;-0.9503391892;0.004809334874
18.52948042;0.1013293236;-1.469125797;-0.2163022479
18.54455542;-0.001388713717;-1.576978274;-0.07151378632
18.55963142;-0.6359914139;-1.337760496;0.2182672048
18.57470742;-0.8012913233;-1.026804398;0.1870614919
18.58978342;-0.7920866364;-0.3746141499;0.2252359164
18.60485942;-0.898931931;-0.08954250634;0.4647986805
18.61993542;-0.9808525917;0.6382317746;0.5215380147
18.63501042;-0.7851644102;0.6072006011;0.2110137337
18.65008642;-0.03153081805;-0.4634123057;0.03826300979
18.66516242;0.3725822425;-0.8222559303;-0.1305642325
18.68023842;0.1503763533;-1.377474784;-0.2962044498
18.69531442;-0.1548807558;-1.349283603;-0.2534060472
18.71038942;-0.4672030556;-0.9254879379;-0.09270789653
18.72546542;-0.4456183514;-0.6723637265;-0.05229691207
18.74054142;-0.4827195194;-0.3688815397;0.1286267576
18.75561742;-0.5748494187;-0.1497045082;0.1314059392
18.77069342;-0.7550424787;-0.01428182423;0.31733044
18.78576942;-0.8262185884;-0.04223794699;0.3514083052
18.80084542;-0.5930310434;-0.1157573283;0.2379647201
18.81592042;-0.6037098134;-0.1270629197;0.3988239616
18.83099642;-0.4729619783;0.04048202813;0.3741937351
18.84607242;-0.297728819;-0.04599185944;0.3425319394
18.86114842;-0.07902570426;-0.1793428749;0.5844379753
18.87622442;-0.2509142563;-0.07003794909;0.7511415088
18.89129942;-0.4504335335;-0.0327023077;0.3752573436
18.90637542;-0.323451013;-0.2800845534;0.2550935537
18.92145142;-0.2096738443;-0.4352749193;0.150931254
18.93652742;-0.4475251284;-0.2452620453;0.2157780451
18.95160342;-0.7506325087;0.2582077807;0.3214617902
18.96667942;-0.9724741164;0.6417880511;0.2990596452
18.98175442;-0.6694822186;0.6459009826;0.2458733717
18.99683042;-0.4607655635;0.862804032;0.1212984422
19.01190642;-0.815162673;0.5763407511;0.4299299794
19.02698242;-0.8741964546;0.9856288898;0.432709161
19.04205842;-0.796467078;0.8451793545;0.1003832442
19.05713442;-0.1503933102;0.5708344281;-0.1813002303
19.07220942;0.2370490462;-0.2602759409;-0.04809978068
19.0872855;0.3459929064;-0.4218228149;-0.09525669783
19.1023615;-0.1119972762;-0.9785145825;-0.0951011619
19.1174375;0.3770334354;-1.08619983;-0.38665766
19.1325135;-0.4790962923;-0.7406580359;0.6171174788
19.1475895;-0.8545179427;0.4179174596;0.6671611664
19.1626645;-1.657119919;1.368916799;0.3616374242
19.1777405;-0.9088990948;1.176636375;0.1242632729
19.1928165;-0.2401410538;0.4501549137;0.2786642647
19.2078925;-0.0153980577;-0.05957026362;0.06320196927
19.2229685;-0.02093244731;-0.724672333;-0.08796434283
19.2380445;0.1846471766;-0.8726624376;-0.2233332324
19.2531205;0.2942073333;-0.8333785039;-0.1190905336
19.2681955;0.2472506833;-0.8918646938;-0.1126814005
19.2832715;-0.1609782323;-0.5207039094;-0.04406783313
19.2983475;-0.4143038803;-0.5088118422;-0.1261314583
19.3134235;-0.1871243495;-0.8270138097;-0.1099998674
19.3284995;-0.2384465307;-0.8213455188;-0.06799463958
19.3435745;-0.3815878317;-0.4916216129;-0.04240605444
19.3586505;-0.4684657618;-0.4791845852;-0.01487122357
19.3737265;-0.2377308315;-0.5705227715;0.1298716298
19.3888025;-0.1195363837;-0.7430448693;0.1076104027
19.4038785;0.2372519445;-1.05715554;-0.04922332317
19.4189545;0.3460227272;-1.057310491;-0.1649470299
19.4340295;0.1784064433;-1.04404082;-0.1058866435
19.4491055;0.03541483104;-1.134641088;-0.1321938515
19.4641815;-0.351672307;-0.6497186297;-0.2046162951
19.4792575;-0.2877101997;-0.2164241624;-0.1176915872
19.4943335;-0.2784277448;0.06510289907;0.07248120815
19.5094095;-0.3769387105;0.1106410146;0.08770297229
19.5244845;-0.1070096013;-0.1484912109;0.0315661937
19.5395605;0.09878110707;-0.2273081696;0.08333276331
19.5546365;0.007604888678;-0.1523164594;0.2946066982
19.5697125;-0.2631226578;-0.1491507769;0.3144802147
19.5847885;-0.2889167726;-0.1156567562;0.2619511682
19.5998645;-0.2188770694;-0.06967717588;0.3211910641
19.6149395;-0.09543766916;0.3037207532;0.3155835843
19.6300155;-0.1997818172;0.3168114996;0.2554397088
19.6450915;-0.3490784821;-0.05556959867;0.0736661464
19.6601675;-0.1230724874;-0.4093436873;0.1419013989
19.6752435;-0.04546444058;-0.4377272415;0.07971684515
19.6903195;-0.329739401;-0.2722989857;0.2069961119
19.7053945;-0.5947243971;0.1027577984;0.09954709232
19.7204705;-0.723035405;0.4699185026;0.2734479636
19.7355465;-0.2435555354;0.07944436491;0.2902356121
19.7506225;-0.3409175232;0.2965912431;0.2463645378
19.7656985;-0.6680861959;0.6359069216;0.3702848715
19.7807745;-0.5841932693;0.6096991163;0.230820592
19.7958495;-0.1235499126;0.01916600347;0.1470153737
19.8109255;-0.09178462118;-0.2390850466;0.08078688562
19.8260015;-0.2604653907;-0.4565166843;-0.06817736506
19.8410775;-0.2853178114;-0.2952083766;0.09281519294
19.8561535;-0.4554422584;0.05181042373;0.4707616711
19.8712295;-0.4547838619;0.09040263176;0.3406865582
19.8863045;-0.2737523112;-0.1039798665;-0.02552660465
19.9013805;-0.01462973356;-0.4704669714;0.04185758561
19.9164565;-0.1759862807;-0.5421509117;0.3033257738
19.9315325;-0.3884083164;-0.5302079737;0.3422474724
19.9466085;-0.0206798476;-0.2683246332;0.1319663948
19.9616845;0.1415184063;-0.3533723849;0.1213957983
19.9767595;0.03192492038;-0.5281614482;0.1428568339
19.9918355;-0.1742984819;-0.4114902002;0.1154328078
20.0069115;-0.232013424;-0.1429731935;0.06945498168
20.0219875;-0.1821214718;-0.07444382608;0.1503225589
20.0370635;0.01758286983;0.06148698092;0.08479719847
20.0521385;0.1041003191;-0.08063427329;0.07096327096
20.0672145;-0.0471513623;-0.3224464613;0.08430457056
20.0822905;-0.06327535182;-0.3548891526;0.05103215933
20.09736604;-0.1133234248;-0.4884179235;-0.09985933363
20.11244204;-0.1768686256;-0.5775926399;-0.07229438961
20.12751804;-0.1648520127;-0.4125286657;0.1029238594
20.14259404;-0.3147597116;-0.2786461383;0.1988769606
20.15766904;-0.281187923;-0.03629425228;0.1473322928
20.17274504;-0.3199640259;-0.03861676633;0.1044230855
20.18782104;-0.1886235756;-0.3024343657;0.01190493107
20.20289704;-0.1736725375;-0.3601563245;0.1001949638
20.21797304;-0.3594172364;-0.08112485468;0.2397299945
20.23304904;-0.4686414707;0.1463984925;0.3615093702
20.24812404;-0.3508861488;0.6113246423;0.2798000863
20.26320004;-0.2475073761;0.7067991489;0.3606995308
20.27827604;-0.1820530593;0.6833015281;0.3656462753
20.29335204;-0.131088143;0.5989010632;0.2170153159
20.30842804;-0.06828436911;-0.1205327493;0.01398595512
20.32350304;-0.04817228615;-0.456271686;-0.13972565
20.33857904;-0.08958255976;-0.9007191324;-0.3940587732
20.35365504;-0.2100352022;-0.9195249474;-0.2348192105
20.36873104;-0.629318279;-0.3569157976;0.1075791201
20.38380704;-0.5616554689;-0.04536152959;0.2604513574
20.39888304;-0.3926522255;0.4518669784;0.3802695769
20.41395904;-0.1270082483;0.5622746891;0.4300130099
20.42903404;-0.3443130013;0.3845690346;0.2976624531
20.44411004;-0.3091674346;0.2597368276;0.2588050738
20.45918604;-0.3080380449;0.3008293051;0.3662719274
20.47426204;-0.2375507373;0.3904530877;0.2869377825
20.48933804;0.005161337256;0.2218667507;0.1084617573
20.50441404;0.03776190341;0.04207948744;-9.472489357e-05
20.51948904;-0.04450666666;-0.2495369446;-0.08167653948
20.53456504;-0.196928376;-0.3961646479;-0.1100381666
20.54964104;-0.3013862523;-0.4808411014;-0.247158882
20.56471704;-0.2963322115;-0.484535957;-0.231860227
20.57979304;-0.2656720439;-0.3984877467;0.03968037486
20.59486904;-0.3426047373;-0.3634933305;0.08761526406
20.60994404;-0.1557408813;-0.4648437041;0.0482792902
20.62502004;0.01563691646;-0.4805545878;0.1460391811
20.64009604;-0.1988217044;-0.4256474787;0.175534291
20.65517204;-0.2739891234;-0.4486790764;0.06279851139
20.67024804;-0.02602624923;-0.5480121607;-0.1088435805
20.68532404;0.07153220505;-0.5381520009;-0.07291594863
20.70039904;-0.1564293909;-0.2059067756;0.1363658398
20.71547504;-0.2051703188;0.001931920052;0.1839171517
20.73055104;-0.1690096754;0.1178512162;0.2148059455
20.74562704;-0.05872563332;0.09133818626;0.2198313349
20.76070304;0.07527149945;-0.01901339114;0.1190709454
20.77577904;0.1285065973;-0.1038067889;0.1455711114
20.79085404;0.05225627393;-0.2316666842;0.1815884981
20.80593004;-0.0185880062;-0.2919345206;0.1884236008
20.82100604;-0.1796264648;-0.143035174;0.1194007283
20.83608204;-0.08977376372;-0.1221255308;0.0905447191
20.85115804;-0.1983618209;-0.08214343965;0.05941121936
20.86623404;-0.2907867122;-0.07851056457;0.1529581913
20.88130904;-0.5050026736;0.06589285791;0.1879686874
20.89638504;-0.4854101157;0.07578225374;0.1217770368
20.91146104;-0.05451183736;-0.01129682064;-0.09686731339
20.92653704;0.07164710283;-0.06462752044;0.0394482404
20.94161304;-0.3339154825;0.1995765799;0.3534285182
20.95668904;-0.349407388;0.4810878539;0.3693794301
20.97176404;-0.3310386524;0.7030598545;0.2644853514
20.98684004;-0.1733205351;0.6884681278;0.2407456559
21.00191604;-0.1970400578;0.006782770157;-0.1904946846
21.01699204;-0.08185254067;-0.5051853991;-0.2844226027
21.03206804;0.2538323092;-0.7297143871;-0.3245438576
21.04714404;-0.02736789286;-0.6986387748;-0.06947018445
21.06221904;-0.6847013515;0.1275587636;0.4748050207
21.07729504;-0.825820393;0.6901889634;0.4572528487
21.09236779;-0.8879292253;1.246181989;-0.07376204073
21.10744379;-0.4033882982;0.8853696066;-0.004768404365
21.12251979;-0.1926020211;0.1503745991;0.05008432567
21.13759579;-0.2742893779;-0.2077270138;0.04284430325
21.15267079;-0.1180541146;-0.4156791455;0.04218795329
21.16774679;0.2319616762;-0.3687061232;0.06221934468
21.18282279;0.3735344616;-0.2687462175;-0.00203950882
21.19789879;0.2433891821;-0.2286237931;0.03776658118
21.21297479;0.1085868877;-0.2256890756;0.2071235812
21.22805079;0.1143148202;-0.2582861334;0.1803012335
21.24312579;0.0867136234;-0.1817741472;-0.003289058805
21.25820179;0.1450688356;-0.1995069981;-0.07775861263
21.27327779;-0.03639336258;-0.2032363522;-0.1144498909
21.28835379;-0.1615015581;-0.2021756673;-0.05623852015
21.30342979;-0.1799384138;0.03033301592;0.0249395442
21.31850579;-0.1545003945;-0.0142537576;-0.01025660098
21.33358079;0.1291380966;-0.2570400918;-0.1366307187
21.34865679;0.218532376;-0.3414540052;-0.103218559
21.36373279;-0.08871687949;-0.2407743073;0.07662103683
21.37880879;-0.1626134062;-0.2072188908;-0.0002002671361
21.39388479;0.1585118768;-0.2325461054;-0.06724239528
21.40896079;0.3005512699;-0.1780325139;-0.05542224884
21.42403679;-0.1048171878;0.03942894459;0.1575921097
21.43911179;-0.3094290975;0.1958682758;0.2129403913
21.45418779;-0.1112388924;0.2014289778;-0.08576286614
21.46926379;0.02157330215;0.01986065269;-0.1364652425
21.48433979;0.1214674267;-0.05556609035;-0.06052072853
21.49941579;-0.03876353145;-0.01543255627;0.007503147125
21.51449179;-0.2083126125;0.1234306294;0.1782710803
21.52956679;-0.1632966533;0.2141343927;0.1444864529
21.54464279;0.1182289463;0.1252175385;-0.02579850018
21.55971879;0.1343982518;-0.04207890272;0.03071425438
21.57479479;-0.1780599958;0.006270554066;0.1332065892
21.58987079;-0.3674282143;0.002762224674;0.2064008653
21.60494679;-0.09242167532;-0.008730477691;-0.09199365914
21.62002179;0.01830295444;-0.1178974092;-0.1054138961
21.63509779;0.1346107981;-0.1132599825;-0.01750890255
21.65017379;-0.07824890167;-0.02745618582;0.06370979995
21.66524979;-0.2911486548;0.08155287087;0.06898603499
21.68032579;-0.09073475361;0.0683410871;0.04491772592
21.69540179;0.1695470345;-0.0493043071;-0.02740063727
21.71047679;0.09240150243;-0.00856967926;0.07126001716
21.72555279;-0.1960650346;0.3141673887;0.3087443885
21.74062879;-0.1545044875;0.3678740644;0.2064029118
21.75570479;0.2389996773;0.04882775903;-0.03071191549
21.77078079;0.2870906872;-0.1726776338;-0.06585485101
21.78585679;-0.04864123285;-0.2128655469;-0.05518631369
21.80093279;-0.2110540795;-0.2260118419;-0.02199167043
21.81600779;0.02509917319;-0.06829898715;0.006497133672
21.83108379;0.1176959726;-0.05754946589;-0.0179304868
21.84615979;0.1937469059;-0.1888796836;-0.01222126544
21.86123579;0.05317604095;-0.162462548;0.09510379314
21.87631179;-0.1514776763;0.05240625501;0.2012594086
21.89138779;-0.1538896528;0.05011707008;0.1158938608
21.90646279;0.09167820185;-0.1301122427;-0.173852047
21.92153879;0.2025916967;-0.271943475;-0.2131766188
21.93661479;-0.02672031373;-0.1942643845;0.001764689684
21.95169079;-0.04713615954;0.1031799674;0.07505018234
21.96676679;0.07137140661;0.415503729;0.003895415068
21.98184279;0.06831448227;0.2566097367;-0.1144884825
21.99691779;0.2481660649;-0.1600341994;-0.2507525808
22.01199379;0.1452650097;-0.3069840842;-0.1805292749
22.02706979;-0.09456146389;-0.05499774098;0.0684089148
22.04214579;-0.02689777672;0.2092665857;0.1148627043
22.05722179;0.05143240124;0.1556195515;0.07298260689
22.07229779;0.1693897444;0.03976106644;0.07865966856
22.087374;-0.1274871352;0.0210376972;0.05739159107
22.102449;-0.2256838131;-0.01564013243;0.01307174295
22.117525;0.002892325222;0.1022350574;-0.01683296442
22.132601;0.1767496347;0.03071250021;-0.06868081033
22.147677;0.3078447944;-0.3531484365;-0.1852313134
22.162753;0.2088730681;-0.4068568665;-0.1192437306
22.177829;-0.2183502352;-0.1193445951;-0.0850541836
22.192904;-0.04186021686;0.09589784503;-0.156792503
22.20798;0.02132274896;0.2772053844;0.008662649989
22.223056;-0.08911770612;0.446075896;0.0593132785
22.238132;-0.04532556921;0.6618445855;0.1237954956
22.253208;0.1752796447;0.6386837643;0.08587103963
22.268284;0.1929902762;0.3720507306;-0.07553257763
22.283359;0.136566107;0.1200205332;-0.232626797
22.298435;0.2763958374;-0.3386531889;-0.342481361
22.313511;0.2284375593;-0.2797717273;-0.2778778142
22.328587;0.07615998387;0.1374247706;-0.1658749831
22.343663;0.02666418046;0.2608770347;-0.1418829802
22.358739;0.1449928218;0.3265658247;-0.02448492318
22.373814;0.02668610752;0.3115472513;-0.05647884071
22.38889;0.06688980818;0.04445638061;-0.1891416389
22.403966;0.2436707255;-0.08092078686;-0.2904458195
22.419042;0.1360746485;-0.2063459015;-0.1730202806
22.434118;0.1871892536;-0.09311047733;-0.2792665279
22.449194;0.2911425152;-0.0008127629757;-0.1319728267
22.46427;0.2871237239;0.1062854236;-0.09625744879
22.479345;0.1267290437;0.02000507891;-0.1136295265
22.494421;0.166336036;0.006024971008;-0.1403273284
22.509497;0.1183648941;0.09937810779;-0.2073957691
22.524573;0.1456766537;0.1771390593;-0.1543378419
22.539649;0.3128117117;0.2924098992;-0.1461131483
22.554725;0.3887065244;0.2275864971;-0.1912320185
22.5698;0.4161875609;-0.08531613886;-0.2223883224
22.584876;0.2948198292;-0.2546702152;-0.1863817531
22.599952;0.2166127351;-0.1606294459;-0.1637357792
22.615028;0.08052171439;-0.04474932611;-0.0220790863
22.630104;-0.147874622;0.2269321936;0.06422757089
22.64518;-0.2014435959;0.2682404333;0.0359586221
22.660255;-0.03365978926;0.07575067878;-0.05541230857
22.675331;0.04791062325;-0.1381258518;-0.05408616006
22.690407;0.0519194743;-0.223670032;-0.06657698214
22.705483;0.03730055809;-0.03923832536;-0.1301888412
22.720559;0.076910474;0.1764637059;-0.2469960371
22.735635;0.06341276139;0.2460233527;-0.2599172142
22.750711;0.1065234053;0.3439992982;-0.3678635395
22.765786;0.1142820758;0.1966442013;-0.4321077749
22.780862;-0.02660892427;0.1719765526;-0.2339187393
22.795938;-0.1870650002;0.1597365761;-0.1709684926
22.811014;0.1286580402;0.152325815;-0.2993745178
22.82609;0.1336802137;-0.07373514354;-0.2103179151
22.841166;0.2822035843;0.0321924305;-0.07361527562
22.856241;0.1529909357;0.06281371415;-0.05915248007
22.871317;0.1778307849;0.3307775742;0.0798916769
22.886393;0.1671315497;0.4133706647;0.01593950987
22.901469;0.4081210345;0.2791794044;-0.01130296022
22.916545;0.4545160595;0.09315900922;-0.1059913087
22.931621;0.259690927;-0.04120825231;-0.1832453066
22.946697;0.1280151388;-0.05060472786;-0.2379834312
22.961772;0.08780529857;0.02059447825;-0.2788110298
22.976848;0.1082348853;0.1952092946;-0.1483868381
22.991924;-0.03036634505;0.5696258086;-0.02376893163
23.007;0.009276315272;0.430827527;-0.009103530049
23.022076;0.1592927724;-0.02231239021;-0.2091282991
23.037152;0.3057433051;-0.2007851994;-0.2430053124
23.052228;0.2683480221;-0.1921593869;-0.199453496
23.067303;0.07333168566;-0.007708384395;-0.1187201124
23.082379;0.1117128092;0.2634018624;-0.149503364
23.0974545;0.2206511146;0.1866887319;-0.1100141931
23.1125305;0.3300700611;0.009365485311;-0.09749852031
23.1276065;0.2637325224;0.01866080403;-0.111263743
23.1426825;0.1954273957;0.2063008779;-0.1807769045
23.1577575;0.08907823741;0.2410543889;-0.162693513
23.1728335;0.2515036556;0.01958524883;-0.2670932096
23.1879095;0.4284348464;-0.01341234326;-0.2910472056
23.2029855;0.2311088598;0.2753600031;-0.1305732957
23.2180615;0.08848825336;0.4634573293;-0.07572407395
23.2331375;-0.06070725471;0.3493050617;-0.229009417
23.2482135;0.1926064065;0.06115602851;-0.3430020556
23.2632885;0.5377956131;-0.1363354343;-0.317874231
23.2783645;0.2485423332;-0.1193024951;-0.1853988361
23.2934405;-0.0473519218;-0.07552673042;-0.1005083746
23.3085165;0.1503889248;-0.1146036726;-0.2141247448
23.3235925;0.4378924254;-0.3754865545;-0.4712195081
23.3386685;0.429065761;-0.4111955005;-0.4553682911
23.3537435;0.1087728292;0.218447299;-0.152113561
23.3688195;-0.1392195734;0.4695741016;-0.03114577889
23.3838955;0.1783353996;0.7512426656;-0.2120115611
23.3989715;0.4380210641;0.5805039686;-0.3056819093
23.4140475;0.5508144388;-0.0804284513;-0.2963515073
23.4291235;0.4368741328;-0.04196312785;-0.2943181381
23.4441995;0.1464695361;0.07288028061;-0.120885044
23.4592745;0.1537984362;0.04729929686;-0.2607203293
23.4743505;0.4131452546;-0.1014199555;-0.2716435128
23.4894265;0.376138519;-0.117859987;-0.2316883188
23.5045025;0.2176643568;0.1278733438;-0.04106002539
23.5195785;-0.04303609192;0.3402699441;0.0190598765
23.5346545;0.06262835741;0.3306641382;-0.1628835475
23.5497305;0.253385582;0.3109052271;-0.2003609839
23.5648055;0.2014634764;0.1601762867;-0.1221027267
23.5798815;0.045561212;0.1833739454;-0.06305403471
23.5949575;0.113403824;0.2125188071;-0.05178031057
23.6100335;0.2613296092;0.1072098684;-0.1947245604
23.6251095;0.351421169;-0.04884471595;-0.4399579543
23.6401855;0.3345984372;-0.2611635482;-0.3085622478
23.6552605;-0.02046203882;0.1305215478;-0.252501483
23.6703365;-0.01683968872;0.3150158197;-0.2078123832
23.6854125;0.1962892753;0.3734026068;-0.2308583066
23.7004885;0.2215957323;0.3637207872;-0.2296935412
23.7155645;0.05242291957;0.4160568756;-0.0876097092
23.7306405;0.2906501797;0.19131271;0.01739634365
23.7457165;0.2365450162;0.2105898106;-0.1835309431
23.7607915;0.3265275255;0.09095519364;-0.2449664685
23.7758675;0.3655071115;-0.3134879422;-0.3121413285
23.7909435;0.3274800369;-0.2856815082;-0.2474720004
23.8060195;0.1044289327;0.2712956035;-0.1040275213
23.8210955;0.02292576313;0.5365288138;-0.02415660203
23.8361715;-0.1001847312;0.6447391409;-0.1240498495
23.8512475;-0.02310410321;0.494523586;-0.1751627004
23.8663225;0.1241989535;0.1263869816;-0.2916842598
23.8813985;0.0680034104;0.07127112687;-0.3178353471
23.8964745;0.1835271424;-0.03016286194;-0.3977749711
23.9115505;0.3036909324;-0.1667286766;-0.4742036346
23.9266265;0.4980813244;-0.2814469546;-0.375431883
23.9417025;0.4563702115;-0.2629867101;-0.3572628298
23.9567775;0.1126507026;-0.09368642807;-0.1459877256
23.9718535;0.1468387878;0.07786386251;-0.2688959062
23.9869295;0.3549476248;0.2216679454;-0.2669704181
24.0020055;0.3863898575;0.3682266515;-0.2259481072
24.0170815;0.1929505152;0.4802943867;-0.07682598174
24.0321575;0.2759827316;0.5171376926;-0.153409304
24.0472335;0.5835173312;0.4141220319;-0.362110464
24.0623085;0.6897287875;0.2068534398;-0.4424675792
24.0773845;0.7043842489;-0.1724279577;-0.4381429785
24.09246463;0.5410297081;-0.1628022712;-0.3250259605
24.10754063;0.2848801473;0.1304940659;-0.3705023879
24.12261662;0.2017973524;0.2761651647;-0.3459277099
24.13769263;0.2101261264;0.5060098565;-0.538664217
24.15276863;0.2872468078;0.5064524907;-0.5005172744
24.16784363;0.2619958994;0.6269799775;-0.349961704
24.18291963;0.03785399705;0.5922902012;-0.2014710778
24.19799562;0.2350478366;0.6276038754;-0.5114416274
24.21307163;0.361006802;0.439397791;-0.4136978164
24.22814763;0.5439129701;0.4070340371;-0.3165802422
24.24322362;0.3945572484;0.35325661;-0.2188244444
24.25829963;0.09504210502;0.3077062154;-0.2866831362
24.27337463;0.1397657034;0.2405860269;-0.4766887012
24.28845063;0.3980141222;0.05016852558;-0.7194993013
24.30352662;0.1588878527;-0.002697905302;-0.5646869579
24.31860263;-0.02221503407;0.4457700866;-0.4314186805
24.33367863;-0.02029480845;0.5248677117;-0.3260930774
24.34875462;0.3406818804;0.4983874261;-0.4065308842
24.36382963;0.4607342809;0.3460966945;-0.4058072913
24.37890562;0.3590976861;0.1626958519;-0.3054795957
24.39398163;0.3471032926;0.2160546184;-0.3396793753
24.40905763;0.4781683391;0.3025752836;-0.3821529651
24.42413362;0.4543526298;0.2572184318;-0.3712011302
24.43920963;0.523706747;0.2209376281;-0.4425777993
24.45428563;0.4772199208;0.1104977578;-0.3650726634
24.46936063;0.3881583479;0.0239092648;-0.3697571602
24.48443662;0.4692855415;0.06134489357;-0.3270283395
24.49951263;0.2573421004;0.02540732145;-0.4311105323
24.51458863;0.1582385194;-0.01956361413;-0.3549791998
24.52966462;0.5623246828;0.0001186984777;-0.5563391805
24.54474063;0.6032382354;-0.1530801058;-0.5341387644
24.55981663;0.2503815749;0.1177085441;-0.2793758708
24.57489163;0.07215844184;0.3145737702;-0.2483520064
24.58996763;0.3125927335;0.1905344456;-0.4347691351
24.60504362;0.4898537073;0.09175275385;-0.4841722602
24.62011963;0.4668542692;0.0156149894;-0.3784239033
24.63519563;0.3587813517;0.1501027036;-0.351775218
24.65027162;0.2075665078;0.469497503;-0.2406453761
24.66534763;0.403316085;0.4800528967;-0.3951253054
24.68042263;0.4129476187;-0.04217245817;-0.5393524343
24.69549863;0.3304214787;-0.1504248852;-0.4718708879
24.71057462;0.2192395967;0.1152521288;-0.442841801
24.72565063;0.1159689975;0.2806482249;-0.2157783374
24.74072663;0.1321877119;0.602698245;-0.1761660826
24.75580262;0.2863363963;0.6575012738;-0.2854256925
24.77087763;0.2411169541;0.3868336612;-0.2757646304
24.78595362;0.2261024737;0.2814428616;-0.3122644123
24.80102963;0.4439147651;0.3090107292;-0.3227399915
24.81610563;0.2861647806;0.3123062199;-0.2653519088
24.83118162;0.2513680002;0.39630732;-0.3738198057
24.84625763;0.3802888727;0.313013733;-0.3423027286
24.86133363;0.3002533543;0.1105860507;-0.3033488703
24.87640863;0.2484098938;0.2128316331;-0.309775545
24.89148462;0.1409091264;0.3530776852;-0.3009822097
24.90656063;0.118364017;0.4208948618;-0.3008190724
24.92163663;0.1652230185;0.4102453279;-0.2805152008
24.93671262;0.2841454446;0.3140866971;-0.3776421306
24.95178863;0.3743603808;0.2244266617;-0.4168670073
24.96686362;0.3503560987;0.2934723383;-0.3440177169
24.98193963;0.1246138135;0.3724957037;-0.2504929644
24.99701563;0.2294894734;0.433223716;-0.2570152411
25.01209162;0.4328819463;0.2601221591;-0.4545695615
25.02716763;0.3421504086;0.1549441981;-0.4138954523
25.04224363;0.3638900641;0.2208657074;-0.34459396
25.05731962;0.2685395184;0.1943719733;-0.3585343069
25.07239463;0.2805546695;0.2952107155;-0.4381704605
25.08747062;0.4111446297;0.2473284513;-0.5153882056
25.10254237;0.4189316592;-0.1279060882;-0.5196435168
25.11761838;0.4182852495;-0.1113754249;-0.3748585635
25.13269438;0.2683091381;0.09118498921;-0.3788910958
25.14777037;0.2183204144;0.1404010034;-0.3343069535
25.16284638;0.3638476717;0.3549563956;-0.3692241865
25.17792138;0.3772874969;0.3327252817;-0.3879668516
25.19299738;0.2974417207;0.1777658808;-0.3606790656
25.20807337;0.3244520563;0.2119966507;-0.389523088
25.22314938;0.4280845982;0.1748510438;-0.4780163115
25.23822538;0.3899665993;0.1295433086;-0.5128516835
25.25330137;0.3309246317;0.013253299;-0.5211886436
25.26837738;0.4780873552;0.04796003222;-0.487891674
25.28345237;0.3764118764;0.1232984823;-0.4371226394
25.29852838;0.360314784;0.2381009603;-0.3436057806
25.31360438;0.3583875418;0.476114797;-0.2776415867
25.32868037;0.3907109499;0.4811708844;-0.3215652859
25.34375638;0.2661503461;0.2239214623;-0.2843319708
25.35883238;0.3940526336;0.1550020856;-0.3983120379
25.37390837;0.3527616432;0.02259598017;-0.4447500399
25.38898337;0.2759470636;0.1267272896;-0.3957459873
25.40405938;0.3193924606;0.3078132194;-0.3674103802
25.41913538;0.2931030867;0.2749559605;-0.3504028764
25.43421137;0.4128531861;0.2734631664;-0.4306380773
25.44928738;0.2748600662;0.2394966906;-0.3760239136
25.46436338;0.2438443878;0.3876622117;-0.3666628137
25.47943937;0.2599385566;0.4100377518;-0.3728728491
25.49451438;0.1679624391;0.4012026089;-0.4064727044
25.50959037;0.2171907324;0.3276265097;-0.4189290279
25.52466638;0.3999042347;0.2939857239;-0.4341890913
25.53974238;0.2876727775;0.332894851;-0.2803108406
25.55481837;0.2203315642;0.3329474759;-0.4677936244
25.56989438;0.2751047722;0.1357010114;-0.4647022015
25.58497038;0.333789475;0.007472156882;-0.513943651
25.60004538;0.2898555431;0.05320381522;-0.4483320442
25.61512137;0.2078787491;0.4061516923;-0.3025606656
25.63019738;0.1829093841;0.6046401054;-0.2767405307
25.64527338;0.2275905901;0.5533506685;-0.311494334
25.66034937;0.2717750752;0.3548891526;-0.3053363389
25.67542538;0.3058745751;0.003943946958;-0.4649255651
25.69050138;0.2916766584;-0.02779415488;-0.4199774337
25.70557638;0.3780955821;0.1543471974;-0.3594032031
25.72065238;0.3555577818;0.1794674206;-0.3409493905
25.73572837;0.3309141067;0.1964529973;-0.340219658
25.75080438;0.4405935466;0.1987176239;-0.414616414
25.76588038;0.2761821216;0.2267959535;-0.3078599972
25.78095637;0.1814861718;0.3614590842;-0.2892237514
25.79603238;0.2335009557;0.4138998377;-0.3809615949
25.81110738;0.2992268756;0.3186434323;-0.4080602235
25.82618338;0.4652971557;0.1593512446;-0.428111203
25.84125937;0.326511738;0.07977063954;-0.4163559607
25.85633538;0.4117626804;0.1827769446;-0.4192289901
25.87141138;0.4187553656;0.1823670548;-0.3972905293
25.88648737;0.2880616173;0.08505301416;-0.406929372
25.90156338;0.3140864047;0.06383990049;-0.4395164895
25.91663837;0.3213939625;0.06978184104;-0.3654223269
25.93171438;0.2848529577;0.2110885781;-0.3073118207
25.94679038;0.2652335027;0.5315844083;-0.2411935526
25.96186637;0.2164712325;0.5872680277;-0.244915013
25.97694238;0.1793782505;0.5011630994;-0.2830830055
25.99201838;0.2670218736;0.3359517753;-0.3610600117
26.00709437;0.3974057195;0.09849283934;-0.4488404596
26.02216937;0.4264675507;0.08469750345;-0.4575843859
26.03724538;0.335355067;-0.07201313853;-0.4853118825
26.05232138;0.4544026235;-0.1458143556;-0.5583026755
26.06739737;0.523650029;-0.2075849265;-0.4776660633
26.08247338;0.3204183546;-0.01950280309;-0.3846573275
26.09755362;-0.1371189612;0.5775101942;-0.1902833077
26.11262963;-0.06224331826;0.7072072846;-0.2281770658
26.12770462;0.2524444726;0.4506279534;-0.4166842818
26.14278063;0.4427862525;0.2855908763;-0.4192722595
26.15785663;0.2688546833;0.3783616304;-0.3792354968
26.17293262;0.1542729378;0.4763346523;-0.3083637348
26.18800863;0.4712902594;0.5365861166;-0.5584868628
26.20308462;0.5807010198;0.4088893586;-0.6634841448
26.21816063;0.4860749441;0.1954490304;-0.5650497776
26.23323562;0.3797374803;0.236948474;-0.4653167439
26.24831163;0.2613021272;0.3677541965;-0.3868924257
26.26338763;0.3448594236;0.4459028184;-0.3795185021
26.27846362;0.3577209592;0.3457476157;-0.3598838443
26.29353963;0.2822980168;0.3465264648;-0.3227686429
26.30861563;0.2745563033;0.4980032641;-0.2055492184
26.32369162;0.332316269;0.4921525401;-0.2545480084
26.33876663;0.3033725515;0.2569173002;-0.3853177705
26.35384262;0.3895020381;0.05178645015;-0.5122131675
26.36891863;0.5011008266;-0.2913948226;-0.5570519561
26.38399463;0.5278834131;-0.2038514793;-0.5215649119
26.39907063;0.1874868768;0.144011659;-0.3412861902
26.41414663;0.1920462433;0.3475836414;-0.3598718575
26.42922262;0.3176578841;0.319343344;-0.3660497332
26.44429763;0.3320405728;0.1899298435;-0.3647928742
26.45937362;0.2587392926;0.1329972589;-0.3599431935
26.47444963;0.293877258;0.1884487438;-0.3623040068
26.48952563;0.362074796;0.3871166664;-0.3603644854
26.50460162;0.4039148399;0.414659391;-0.4256273058
26.51967763;0.4594800532;0.1727010226;-0.5381926391
26.53475363;0.4296615922;0.06390714347;-0.50706294
26.54982863;0.4006784061;-0.002415484786;-0.510226576
26.56490463;0.3531662706;-0.02267667174;-0.416402446
26.57998062;0.350306105;0.2454398006;-0.2736034995
26.59505663;0.2835513675;0.3126821959;-0.1540542519
26.61013263;0.2001460987;0.3064572501;-0.1267044854
26.62520863;0.1985828456;0.3008643883;-0.1586583495
26.64028463;0.3204177698;0.1855327374;-0.2627270937
26.65536062;0.2920888871;0.1718654555;-0.3246932539
26.67043563;0.329642922;0.1029764843;-0.4507951838
26.68551162;0.3856501848;0.07236806452;-0.4706979364
26.70058763;0.3463180116;0.1375639343;-0.4926480916
26.71566363;0.3201581535;0.2083286923;-0.5174858943
26.73073962;0.1776109296;0.4143138206;-0.4452350664
26.74581563;0.03199508697;0.5597522002;-0.4536594424
26.76089062;0.3961620167;0.3001580447;-0.3910956967
26.77596663;0.2224362695;0.3111929101;-0.409276152
26.79104263;0.2888796428;0.1389017773;-0.4274109989
26.80611862;0.3114852709;0.04351380944;-0.4061467221
26.82119463;0.3062929434;0.1168343854;-0.2745101103
26.83627062;0.2966926923;0.2350855511;-0.1994953036
26.85134663;0.3219140723;0.2591889435;-0.1708702594
26.86642263;0.2338313234;0.3322686142;-0.2063347918
26.88149763;-0.02574879885;0.3105707663;-0.4111457992
26.89657363;0.05667676896;0.2776117659;-0.4131230351
26.91164962;0.1448717844;0.335150122;-0.403510505
26.92672563;0.1605508009;0.4374635321;-0.4271952367
26.94180163;0.2823389474;0.399520365;-0.4288692945
26.95687762;0.2446904799;0.2439089996;-0.3033012155
26.97195363;0.3404710883;0.1633729595;-0.5164959607
26.98702862;0.2464864522;0.0704262042;-0.5247387806
27.00210463;0.3331062278;0.1462195677;-0.4957199264
27.01718063;0.3015397418;0.1998858976;-0.4366642177
27.03225662;0.360484938;0.2893658388;-0.4037973109
27.04733263;0.3958374962;0.3373948681;-0.3261237752
27.06240862;0.439071224;0.265183509;-0.2615222749
27.07748463;0.5184863529;0.2221415699;-0.3383210671
27.09255592;0.570165799;0.07859359503;-0.3394647825
27.10763192;0.5247665548;0.1717034876;-0.3719709161
27.12270792;0.4926887298;-0.03229358733;-0.1648195606
27.13778392;0.4203320673;0.1411658192;-0.2985719875
27.15285992;0.3677334389;0.354367581;-0.3528920361
27.16793592;0.3277042776;0.3588933259;-0.3871140352
27.18301192;0.419096843;-0.05098421216;-0.4044045442
27.19808692;0.2809864864;-0.03128435791;-0.4494772214
27.21316292;0.2894874609;0.07781416118;-0.4911740085
27.22823892;0.3229425976;0.1366161007;-0.3718498787
27.24331492;0.1733091331;0.2624879426;-0.4383642957
27.25839092;0.1697689363;0.3138142169;-0.3510203424
27.27346692;0.1488002363;0.4440609455;-0.3668519711
27.28854292;0.09910533518;0.4281454092;-0.3682412696
27.30361792;0.1978607145;0.2948470187;-0.4748178846
27.31869392;0.1995692709;0.1479655463;-0.5468131891
27.33376992;0.276484715;0.2941441834;-0.4357906437
27.34884592;0.1951069683;0.4131671816;-0.4583760989
27.36392192;0.4480467001;0.1282709545;-0.3288064778
27.37899792;0.360058676;0.1446490055;-0.4561658514
27.39407392;0.2558019438;0.1798533368;-0.480300234
27.40914892;0.3948045856;-0.01575006008;-0.4615955758
27.42422492;0.243594127;0.0965451318;-0.4494766366
27.43930092;0.2504435554;0.1600751299;-0.3835513267
27.45437692;0.1694154721;0.455015704;-0.4618993387
27.46945292;0.2701109576;0.3370890588;-0.3418063
27.48452892;0.1801664552;0.7086626565;-0.255708096
27.49960492;0.1961173671;0.685448041;-0.3101140988
27.51467992;0.2628150943;0.4258310813;-0.442994121
27.52975592;0.3742364198;0.3762917161;-0.4716536638
27.54483192;0.354708766;0.3350782013;-0.5486872217
27.55990792;0.3614558682;0.4496339267;-0.472990045
27.57498392;0.2661722732;0.6024485689;-0.4857723507
27.59005992;0.2287310895;0.5115892696;-0.4280044913
27.60513592;0.3444428095;0.5785486597;-0.4234506798
27.62021092;0.2445580405;0.4040537113;-0.4647732452
27.63528692;0.2208455345;0.1626414728;-0.4575446248
27.65036292;0.2294318783;0.2202184206;-0.4281474558
27.66543892;0.2626732993;0.358851226;-0.432311258
27.68051492;0.2436490908;0.3816559517;-0.3761426121
27.69559092;0.387921828;0.3140036666;-0.3868374619
27.71066692;0.3739057598;0.09863200307;-0.375253543
27.72574192;0.3499473783;0.007038293481;-0.4782069308
27.74081792;0.2792586342;-0.01522088706;-0.4718346351
27.75589392;0.1437412253;0.09241758227;-0.4899735752
27.77096992;0.2119589362;0.1987100226;-0.518381103
27.78604592;0.2882729942;0.1496273249;-0.5337414461
27.80112192;0.2956080338;0.2272070128;-0.4541909543
27.81619792;0.2507651523;0.2634913248;-0.4699550477
27.83127392;0.2337088242;0.1849994713;-0.5166596827
27.84634892;0.385461612;0.1188013887;-0.5451590118
27.86142492;0.3692405587;0.1342783839;-0.54118846
27.87650092;0.3158367687;0.3731301266;-0.4310359803
27.89157692;0.366520434;0.4914409339;-0.4507484061
27.90665292;0.4585851368;0.4095682204;-0.431966857
27.92172892;0.4496655017;0.3460405612;-0.5217634249
27.93680492;0.3842740425;0.02444428504;-0.61659006
27.95187992;0.3703132305;-0.05701444566;-0.6930596539
27.96695592;0.3479528931;0.03950028062;-0.6123341641
27.98203192;0.2579101574;0.08497641563;-0.5925422162
27.99710792;0.1809950057;0.2736485231;-0.5487965646
28.01218392;0.3619338781;0.3218225634;-0.5779282701
28.02725992;0.5446555665;0.3287713945;-0.5514237186
28.04233592;0.4143641067;0.3811209315;-0.4216093916
28.05741092;0.1299926671;0.415507822;-0.5866979241
28.07248692;0.3039137113;0.3465171093;-0.7091728261
28.08756292;0.696248433;0.3893450403;-0.6825557157
28.1026395;0.6876755378;0.4021276385;-0.6049426988
28.1177155;0.4724667192;0.3118624163;-0.6601179028
28.1327915;0.4623791027;0.2698367232;-0.7268363875
28.1478675;0.4800143051;0.1978925818;-0.7457179239
28.1629425;0.5092109147;0.2929495972;-0.7052750722
28.1780185;0.2550798127;0.6134664774;-0.5787787476
28.1930945;0.3102497542;0.7792198384;-0.5456188953
28.2081705;0.3525663462;0.7965170717;-0.5570291519
28.2232465;0.4424991542;0.7865037149;-0.6409559923
28.2383225;0.5661394063;0.5277036113;-0.6398230943
28.2533985;0.5167535305;0.540833534;-0.6419000253
28.2684745;0.3208788228;0.5335958505;-0.6248162153
28.2835495;0.3625992912;0.5513012195;-0.7390474203
28.2986255;0.5432858562;0.5125219005;-0.6907228142
28.3137015;0.4652942321;0.5266628069;-0.6187090909
28.3287775;0.1986962816;0.7673833197;-0.6190286413
28.3438535;0.08592629582;0.7793566632;-0.6173621848
28.3589295;0.6626871693;0.6133354998;-0.9076755649
28.3740055;0.737578015;0.3474672818;-0.8285112816
28.3890805;0.5743103054;0.3582226503;-0.7336440083
28.4041565;0.3760788774;0.3262570918;-0.7252058914
28.4192325;0.4791246513;0.3730541128;-0.88429138
28.4343085;0.4884854588;0.4205159622;-0.7883169365
28.4493845;0.4294759431;0.5365598041;-0.8927979094
28.4644605;0.4075982934;0.4015645516;-0.8001245114
28.4795365;0.602534523;0.2716803503;-0.8106565163
28.4946125;0.595834491;0.01183885753;-0.8661422074
28.5096875;0.6892499006;-0.2327571899;-0.9685316312
28.5247635;0.6348620242;-0.2670978874;-0.8314132547
28.5398395;0.383341704;-0.04660230875;-0.9163838232
28.5549155;0.4901603937;0.1018690217;-0.8877160943
28.5699915;0.6336797172;0.3742808586;-0.8655355588
28.5850675;0.5678046933;0.3790223658;-0.7318819499
28.6001435;0.4558050781;0.531414839;-0.8294982916
28.6152195;0.4823929524;0.5104233348;-0.7963483796
28.6302945;0.5643200451;0.4916350615;-0.8542270437
28.6453705;0.6525562835;0.4889663923;-0.754956817
28.6604465;0.5617861542;0.5173172021;-0.6641589135
28.6755225;0.6634446761;0.6009914428;-0.7104293928
28.6905985;0.460334039;0.113084566;-0.8660635623
28.7056745;0.5933198959;-0.07770949602;-0.8555537769
28.7207505;0.5404315379;-0.2941640639;-0.9668502644
28.7358255;0.5028871509;-0.188368637;-0.7827883941
28.7509015;0.1850368935;0.3958009511;-0.6670994782
28.7659775;0.2022335547;0.6676760137;-0.5923773247
28.7810535;0.4281091565;0.7846495628;-0.8572082466
28.7961295;0.4949241203;0.7364398545;-0.7109147117
28.8112055;0.5149581429;0.711064108;-0.7967991999
28.8262815;0.5227817175;0.6751475859;-0.8107603043
28.8413565;0.5536734349;0.4695127058;-0.8964755157
28.8564325;0.6625202313;0.2968724942;-0.9331758571
28.8715085;0.5874753115;0.03372323155;-0.8988275582
28.8865845;0.605388549;0.1754778653;-0.7575746155
28.9016605;0.2838954762;0.493763448;-0.7026593202
28.9167365;0.2831856242;0.595856418;-0.6709305739
28.9318125;0.4350112098;0.5185094494;-0.8023046458
28.9468885;0.5328035527;0.3823792523;-0.796420885
28.9619635;0.4933708075;0.3843760765;-0.7187096348
28.9770395;0.472486015;0.6145710164;-0.5993208933
28.9921155;0.4257278779;0.9295657861;-0.718839443
29.0071915;0.571018323;0.8452723253;-0.7328043482
29.0222675;0.6481591773;0.5138626671;-0.806790922
29.0373435;0.6382241732;0.4643121922;-0.7668094155
29.0524195;0.5134627175;0.4874449468;-0.8790964213
29.0674945;0.5861585185;0.4639566815;-0.7824591959
29.0825705;0.4641148487;0.510254935;-0.9056249464
29.097649;0.5725026387;0.4229337859;-0.8517007542
29.112725;0.4879314351;0.2802664018;-0.8577844897
29.127801;0.4623410958;0.2777561921;-0.7282598922
29.142877;0.2769136083;0.4367963648;-0.9093575165
29.157953;0.1738029304;0.4189559251;-0.7906274638
29.173029;0.3599464095;0.5400617015;-0.9433207762
29.188104;0.5251106635;0.3999542284;-0.8761830461
29.20318;0.6346962556;0.3322025406;-0.9603484529
29.218256;0.5477876276;0.1441794741;-0.8486993784
29.233332;0.6719485742;0.1107041645;-1.095147239
29.248408;0.6141345218;-0.0104144758;-1.078124825
29.263484;0.6181796256;0.2476535565;-0.9115993389
29.27856;0.4318914279;0.4675772774;-0.8010600659
29.293635;0.4443696785;0.7547240978;-0.9032661796
29.308711;0.5399906579;0.6055926168;-0.9594865733
29.323787;0.8916737822;0.2070656937;-1.026360302
29.338863;0.7370973739;0.02298891306;-1.065515597
29.353939;0.5390349305;0.2144630063;-0.9746273535
29.369015;0.5402493972;0.4633959335;-0.945725736
29.384091;0.5136998221;0.6694547367;-0.8728422394
29.399167;0.530548574;0.7626833278;-0.8548623437
29.414242;0.576539264;0.5546288699;-0.8583589786
29.429318;0.4660455993;0.4898148233;-0.8924073154
29.444394;0.6003339234;0.2103775567;-1.064034204
29.45947;0.7364962801;0.09470793664;-1.169408632
29.474546;0.5680502763;0.05195660412;-1.010476633
29.489622;0.6710790932;0.2968122679;-1.034223345
29.504698;0.595550901;0.6498425907;-0.8869723284
29.519773;0.5897127485;0.9040228093;-0.7661381552
29.534849;0.5441299018;1.021833095;-0.8784637526
29.549925;0.5795415169;0.8468949276;-0.9165972465
29.565001;0.5816924152;0.7133708346;-0.9338307452
29.580077;0.6404455304;0.614303214;-0.9358477423
29.595153;0.5332456023;0.5275960225;-0.9815951881
29.610229;0.5886795455;0.5847402763;-1.003165567
29.625304;0.5832249704;0.4811439872;-1.092739063
29.64038;0.4302094764;0.3236328614;-1.023225902
29.655456;0.4994177055;0.4747032791;-1.095711203
29.670532;0.4656567594;0.496216355;-1.057157879
29.685608;0.4500037631;0.7337852186;-0.9374741453
29.700684;0.3826774603;0.7588785446;-0.8696990687
29.71576;0.6719093978;0.6249942631;-0.9691625458
29.730836;0.7004996511;0.5808419377;-1.026223477
29.745911;0.6435594651;0.4816363227;-0.9927259478
29.760987;0.5743562061;0.5624577069;-1.019376972
29.776063;0.4791711366;0.6705733091;-1.002110437
29.791139;0.6248428202;0.6187266326;-1.041292336
29.806215;0.6627257609;0.4076754767;-0.950003559
29.821291;0.6706311965;0.4160826033;-1.016376473
29.836367;0.5629550126;0.3883217776;-0.9638880649
29.851442;0.6016828761;0.4006705123;-0.9679501256
29.866518;0.5521356171;0.3292292315;-0.9900593251
29.881594;0.5863014829;0.2992698526;-0.979556264
29.89667;0.6099064001;0.3993677527;-0.9374712217
29.911746;0.5680146083;0.5068723208;-0.8552415356
29.926822;0.5921410972;0.6681630868;-0.9243366212
29.941898;0.5687089652;0.6537912154;-0.8770449257
29.956974;0.6539900208;0.605321306;-0.9490349677
29.972049;0.6555629218;0.4698647082;-1.061692687
29.987125;0.7187762931;0.4660610944;-0.9945035014
30.002201;0.7101902416;0.4993913931;-1.025486143
30.017277;0.6039907721;0.4928191227;-1.019555604
30.032353;0.6933072835;0.481028797;-1.007965838
30.047429;0.5417150018;0.4492795855;-1.002107513
30.062505;0.5467208031;0.46304627;-0.9543442395
30.07758;0.4137834781;0.6769420964;-0.8856771702
30.092656;0.4102330488;0.7293419194;-0.9239109439
30.10772904;0.6207632178;0.6503074443;-0.9642315888
30.12280504;0.617395514;0.5902518618;-0.9767756206
30.13788104;0.7078422922;0.4537456888;-1.008487995
30.15295704;0.6712311208;0.4255065608;-1.029380389
30.16803304;0.5918586767;0.3116086471;-1.067817938
30.18310904;0.5918145302;0.2838910908;-1.07231737
30.19818404;0.5756791386;0.4010137439;-1.094206422
30.21326004;0.6198951986;0.518690713;-1.02740783
30.22833604;0.5067948452;0.7843735743;-0.8697119325
30.24341204;0.5935733727;0.7966316772;-0.9289892507
30.25848804;0.6942159408;0.6300871879;-0.9928940552
30.27356404;0.6694485971;0.5187907004;-1.060104876
30.28864004;0.744351722;0.4204013568;-1.113534101
30.30371504;0.6509421596;0.4547935098;-1.128431052
30.31879104;0.7303105107;0.512430684;-1.192220082
30.33386704;0.7388059303;0.5182229358;-1.157729111
30.34894304;0.7399414596;0.5079733515;-1.157893418
30.36401904;0.750540415;0.4753312701;-1.139756817
30.37909504;0.6884464931;0.4389493096;-1.065524952
30.39417104;0.7770326874;0.3974890423;-1.108252019
30.40924704;0.8243764231;0.2591988838;-1.050766287
30.42432204;0.8073373443;0.3006176358;-1.053934017
30.43939804;0.7245735151;0.3925762117;-1.079947987
30.45447404;0.6953362674;0.5068629652;-1.006248803
30.46955004;0.6934879625;0.8834371018;-1.0571494
30.48462604;0.6950751892;0.9407053167;-0.9799462733
30.49970204;0.7481275615;0.9485347384;-0.9369847333
30.51477804;0.6849735394;0.8072081208;-1.015119322
30.52985304;0.8574400887;0.5447043908;-1.096259964
30.54492904;0.8097829422;0.4114638877;-1.126944105
30.56000504;0.7913981268;0.4567026258;-1.098540378
30.57508104;0.6969746572;0.449963125;-1.006133613
30.59015704;0.7457003823;0.4625387317;-1.105966634
30.60523304;0.7993710977;0.4117743748;-1.085887588
30.62030904;0.8284729823;0.3511153597;-1.07390752
30.63538504;0.7146963984;0.3951612657;-1.052610792
30.65046004;0.6922252563;0.5563982373;-0.9846541589
30.66553604;0.7066974074;0.6672824961;-1.069588475
30.68061204;0.8155345559;0.7263037062;-1.037594557
30.69568804;0.8581259671;0.7570846188;-1.006042981
30.71076404;0.7663539174;0.7760845613;-1.007475549
30.72584004;0.8031691566;0.70139983;-1.001340358
30.74091604;0.792763744;0.4772754693;-1.187497578
30.75599104;0.771618458;0.3808338332;-1.190315351
30.77106704;0.6956295052;0.3492471743;-1.040616691
30.78614304;0.6458752549;0.421929819;-0.975917834
30.80121904;0.6805126986;0.4512530208;-0.9526836303
30.81629504;0.6339519051;0.3816530281;-0.8592088714
30.83137104;0.5229074326;0.3643785989;-0.8519849288
30.84644704;0.5229778916;0.3446471697;-0.7500486642
30.86152304;0.6200706151;0.4236524087;-0.8547907153
30.87659804;0.6238075706;0.3647229999;-0.8659416479
30.89167404;0.7406749928;0.238492139;-0.8451559657
30.90675004;0.6931420997;0.2445153558;-0.9193509927
30.92182604;0.6025201973;0.3940894711;-0.9120469433
30.93690204;0.6393553171;0.5117453903;-0.8616261104
30.95197804;0.5082891011;0.7011951774;-0.8773267615
30.96705404;0.5577097678;0.7125615799;-0.7973903534
30.98213004;0.6990407708;0.6475206614;-0.65354534
30.99720504;0.5797952861;0.5657689852;-0.6552500957
31.01228104;0.5854799491;0.3068472594;-0.7057217994
31.02735704;0.5693366638;0.2158599061;-0.7583198431
31.04243304;0.4608465475;0.121051982;-0.8515513578
31.05750904;0.4909170234;0.1386088318;-0.7976140094
31.07258504;0.3210051227;0.4609032655;-0.6958215863
31.08766104;0.3075728989;0.6794821268;-0.7053189263
31.10273604;0.4582462907;0.7164096326;-0.7306783006
31.11781204;0.4660824367;0.7009560263;-0.6984253514
31.13288804;0.5406478849;0.715320881;-0.724466511
31.14796404;0.5798303694;0.6570738423;-0.7300409541
31.16304004;0.4981061751;0.5656701672;-0.6949640921
31.17811604;0.6050204667;0.5228942764;-0.7674549481
31.19319204;0.5943770725;0.3668326753;-0.7544834849
31.20826804;0.4489544803;0.4163270169;-0.6867040229
31.22334304;0.3535817152;0.5605170161;-0.6813900733
31.23841904;0.3498555771;0.5571063352;-0.6946094584
31.25349504;0.3067037103;0.5562380236;-0.6993749392
31.26857104;0.4228305826;0.5171195662;-0.783844986
31.28364704;0.4508864003;0.3769372487;-0.6539461666
31.29872304;0.3695726806;0.4449742806;-0.628291508
31.31379904;0.4533562642;0.4951843214;-0.7650222141
31.32887504;0.482263729;0.4360695559;-0.7764351019
31.34395004;0.3814416513;0.4758814931;-0.7561291838
31.35902604;0.4441547933;0.5448365378;-0.781491774
31.37410204;0.5116085654;0.5136375493;-0.7539686376
31.38917804;0.5425517383;0.4648524749;-0.7752510408
31.40425404;0.6756989783;0.2697115928;-0.8997642821
31.41933004;0.6708589455;0.168153643;-0.8686524171
31.43440604;0.5138477567;0.2817147571;-0.7907277435
31.44948204;0.4768509614;0.4130484831;-0.7843501854
31.46455704;0.4971656504;0.5835942221;-0.7948880374
31.47963304;0.4796026611;0.6124455535;-0.8107161579
31.49470904;0.5831901795;0.4508033699;-0.9003145051
31.50978504;0.6378174993;0.3155116636;-0.9763809335
31.52486104;0.7809696177;0.191503914;-1.005055679
31.53993704;0.7848281953;0.1855795151;-1.015851686
31.55501304;0.7192484558;0.1720361942;-1.006704009
31.57008904;0.6682668748;0.2046747673;-0.9526877233
31.58516404;0.6499905252;0.4063154143;-0.8979349807
31.60024004;0.6059998754;0.5213248837;-0.8645877251
31.61531604;0.5644413748;0.6882120198;-0.8674116379
31.63039204;0.5828630278;0.7196203387;-0.8957390589
31.64546804;0.7500132886;0.6945995182;-1.049976329
31.66054404;0.8397946537;0.6626813221;-1.089570749
31.67562004;0.7380159715;0.6270624232;-1.067607438
31.69069604;0.7471896681;0.6626292819;-1.111506287
31.70577104;0.8547275653;0.6428002042;-1.145334183
31.72084704;0.7781421965;0.643945089;-1.076010179
31.73592304;0.7112535578;0.5793853962;-1.084455605
31.75099904;0.7970705107;0.478926723;-1.130323211
31.76607504;0.6679476169;0.410963366;-1.063821073
31.78115104;0.5650854456;0.5279480249;-1.089081922
31.79622704;0.692787466;0.7398715854;-1.13850522
31.81130304;0.7327917767;0.8360933661;-1.124804609
31.82637804;0.6954505804;0.8683898771;-1.028030559
31.84145404;0.7645538521;0.8618731552;-1.13542403
31.85653004;0.8469083762;0.7002181077;-1.122689671
31.87160604;0.8325002521;0.6689372581;-1.164382658
31.88668204;0.834270789;0.7183433068;-1.18109897
31.90175804;0.8808090708;0.7441190028;-1.215474751
31.91683404;0.8493434492;0.7128141797;-1.149809934
31.93191004;0.8042941609;0.6519978744;-1.154107346
31.94698504;0.8801556444;0.5832539141;-1.259283845
31.96206104;0.8037436455;0.5642796993;-1.21839485
31.97713704;0.66343649;0.6026502979;-1.175578906
31.99221304;0.6797557765;0.6579012233;-1.15789985
32.00728904;0.817157743;0.6778788203;-1.191479532
32.02236504;0.7717751634;0.6086331689;-1.189770976
32.03744104;0.7152089068;0.4884261096;-1.176845998
32.05251704;0.7951342052;0.5279404235;-1.30311165
32.06759304;0.7551067981;0.6431767648;-1.246131118
32.08266804;0.7365483204;0.6623310739;-1.277553762
32.0977435;0.7958513662;0.7210178232;-1.264717662
32.1128195;0.9091461396;0.7305955625;-1.342631226
32.1278955;0.836450631;0.5499271238;-1.366880507
32.1429715;0.8532783329;0.4322741282;-1.418673681
32.1580475;1.02648017;0.4105283332;-1.357665295
32.1731235;0.9356898674;0.4704096687;-1.304492177
32.1881995;0.8442639729;0.6058458012;-1.266736121
32.2032755;0.7840040302;0.6077391297;-1.208658652
32.2183505;0.8458164087;0.8003195161;-1.252056686
32.2334265;0.7160538295;0.8193516183;-1.219154989
32.2485025;0.8131085461;0.763913582;-1.359661534
32.2635785;0.8270257965;0.7112740231;-1.215840787
32.2786545;0.9342002892;0.6481398815;-1.404444774
32.2937305;0.8738912299;0.5508772963;-1.299242255
32.3088065;0.9953531018;0.404125632;-1.401746576
32.3238825;0.9406123459;0.3748211414;-1.251122009
32.3389585;0.738717345;0.5222504979;-1.328824488
32.3540335;0.6729820696;0.6040273172;-1.258497102
32.3691095;0.7553199291;0.7369649345;-1.348720517
32.3841855;0.769249751;0.8368435639;-1.183187888
32.3992615;0.6882570434;1.019843287;-1.217445847
32.4143375;0.8191735706;1.036594976;-1.19828189
32.4294135;0.9433906505;0.8680115622;-1.279110876
32.4444895;1.014896835;0.8035699832;-1.265322557
32.4595655;0.8042722338;0.5946109611;-1.315804785
32.4746415;0.9837270829;0.6321120787;-1.378626686
32.4897165;0.871932705;0.4956497598;-1.381754361
32.5047925;0.9327367312;0.5479320538;-1.391868583
32.5198685;0.6570574701;0.5409966713;-1.260224369
32.5349445;0.729600074;0.6699915111;-1.356170454
32.5500205;0.7265674156;0.7462824726;-1.333644056
32.5650965;0.8720119348;0.8264600784;-1.407004685
32.5801725;0.8318363008;0.8370979178;-1.25883741
32.5952485;0.911567764;0.9466928655;-1.353833322
32.6103245;0.9849892044;0.922843827;-1.336126199
32.6253995;1.055518904;0.9063856691;-1.42974246
32.6404755;0.9403258324;0.7057560056;-1.356918605
32.6555515;0.9035988861;0.6927003425;-1.35473964
32.6706275;0.8716321582;0.7436108798;-1.384714807
32.6857035;0.8568913275;0.6425914586;-1.403509512
32.7007795;0.9179722193;0.4498186988;-1.440738442
32.7158555;0.8446200684;0.3859846455;-1.439417848
32.7309315;0.7684165227;0.4929308045;-1.436887758
32.7460075;0.7776595089;0.5752976078;-1.4707981
32.7610825;0.9496395698;0.8936457556;-1.413529885
32.7761585;0.9182944009;0.9426793367;-1.325011811
32.7912345;0.9107342434;0.914578203;-1.209014747
32.8063105;0.928740744;0.8542501402;-1.226894948
32.8213865;0.9885796872;0.6837769067;-1.356071636
32.8364625;1.013612494;0.5852536619;-1.432395342
32.8515385;1.039173305;0.4368197536;-1.428615117
32.8666145;0.9325966904;0.3861670786;-1.367223446
32.8816905;0.8136014664;0.512959857;-1.396592256
32.8967665;0.7975113907;0.6136886716;-1.402520455
32.9118415;0.8029186034;0.7509052813;-1.318212669
32.9269175;0.8233128145;0.7965755439;-1.243917947
32.9419935;0.7958186218;0.7501638544;-1.187047343
32.9570695;0.8113242683;0.7480752289;-1.15883862
32.9721455;0.9462163174;0.6960730165;-1.313731655
32.9872215;0.9680597609;0.6304421139;-1.349323657
33.0022975;0.9941076449;0.6045173138;-1.388155016
33.0173735;0.8989719844;0.5433425742;-1.41063873
33.0324495;0.8365690371;0.5630558771;-1.394139349
33.0475255;0.7828416038;0.5928293145;-1.359771462
33.0626005;0.7624751669;0.7392166972;-1.29937791
33.0776765;0.7380607027;0.803368839;-1.209147771
33.0927525;0.7456679302;0.7711109197;-1.101221911
33.107829;0.6938501975;0.7171779567;-1.034516875
33.122905;0.714269844;0.6314554363;-1.125256599
33.137981;0.7307008123;0.5416866428;-1.139396336
33.153057;0.7088281327;0.4589970732;-1.187358122
33.168133;0.7115728158;0.4159112799;-1.173725924
33.183209;0.7096505436;0.446735462;-1.227241103
33.198285;0.7086044767;0.4780630893;-1.164187945
33.213361;0.6629298288;0.5744661337;-1.084140148
33.228436;0.6581219557;0.6332049233;-0.9970677978
33.243512;0.5854419422;0.6483211452;-0.8058316863
33.258588;0.5343457559;0.6292206305;-0.7401785642
33.273664;0.543936359;0.4499496764;-0.7295617747
33.28874;0.5141646758;0.3530437714;-0.6865499488
33.303816;0.3753766268;0.165270381;-0.5852445987
33.318892;0.3468416297;0.08148679733;-0.637526308
33.333968;0.3516819549;0.01047879517;-0.6385340756
33.349044;0.3429418293;0.08546641231;-0.6142587751
33.36412;0.2469539371;0.2073387587;-0.5507688305
33.379195;0.2658565235;0.306799897;-0.5385016644
33.394271;0.3404342508;0.3887088633;-0.4138270399
33.409347;0.289286609;0.3726068008;-0.3335175794
33.424423;0.1911583436;0.3601534009;-0.2620026237
33.439499;0.1820021886;0.312331363;-0.2806914943
33.454575;0.2703954247;0.1634834719;-0.3071261716
33.469651;0.3105608261;0.09104524076;-0.3469693914
33.484727;0.222678929;-0.01764397323;-0.275593307
33.499803;0.1913591954;-0.01051037014;-0.2943684241
33.514879;0.1498150206;-0.03982597053;-0.3330655897
33.529955;0.1594573715;-0.02697437525;-0.3276604235
33.545031;0.05396132201;0.0981636411;-0.2334342974
33.560106;0.01150527388;0.1708913094;-0.1975850183
33.575182;0.04843161017;0.2856540263;-0.1159251434
33.590258;0.08419727415;0.2861872923;-0.106030485
33.605334;0.1154129273;0.2260217822;-0.08798831642
33.62041;0.1227739871;0.1722016704;-0.1427419361
33.635486;0.1718186778;0.07461924255;-0.1917059353
33.650562;0.1598006031;0.08286674023;-0.2152219748
33.665638;0.1123194578;0.2292313188;-0.2461212936
33.680714;0.1025399897;0.2932191539;-0.2715359241
33.69579;0.1166966835;0.3619672072;-0.2184028602
33.710866;0.1362693608;0.349134323;-0.2180353627
33.725941;0.07984928459;0.2701191437;-0.1706758395
33.741017;0.1177912822;0.2373870152;-0.1841060168
33.756093;0.137070137;0.1322055459;-0.1897351313
33.771169;0.1036044753;0.09098092139;-0.1849398297
33.786245;0.1020567173;0.1001095945;-0.1975370711
33.801321;0.1248348382;0.06837500095;-0.2381173325
33.816397;0.09600426435;0.06542391121;-0.1981434274
33.831473;0.07242390543;0.09247956276;-0.2196316525
33.846549;0.06037103981;0.115871349;-0.28331514
33.861625;0.08072724402;0.1027390873;-0.2651150966
33.876701;0.08697002381;0.09369402945;-0.2434672424
33.891777;0.04434674531;0.1121817559;-0.2270544004
33.906853;0.08175898522;0.1135160905;-0.1808842009
33.921928;0.06635741919;0.07757033229;-0.139825345
33.937004;0.051699619;-0.02687380314;-0.07332730025
33.95208;0.04246423423;-0.07603017569;-0.05587774694
33.967156;-0.03330778688;-0.1176073873;0.001097522378
33.982232;-0.06257660955;-0.1103626871;0.02987517893
33.997308;-0.02298949778;-0.1075764889;-0.002876830101
34.012384;-0.02902587086;-0.09577914655;-0.007415731251
34.02746;-0.0472571969;0.01695926428;0.02764709741
34.042536;-0.06250001103;0.05624495208;0.05777399898
34.057612;-0.06345486134;0.1644582027;0.05404727608
34.072688;-0.0586803174;0.203411184;0.0579713425
34.087764;-0.0104077515;0.1619421458;0.02620575875
34.10284;0.02744858444;0.105228247;0.02858674496
34.117915;0.08224664301;0.02968046665;0.06298854589
34.132991;0.07497212201;-0.03029617846;-0.08958694518
34.148067;0.05126253963;-0.1087792611;-0.03599019706
34.163143;0.05270066231;-0.1274119985;-0.07141613781
34.178219;0.03999524742;-0.1512990439;-0.04403771996
34.193295;-0.01057001173;-0.1288317025;-0.01561849773
34.208371;-0.1068268758;-0.01152310789;0.03376416206
34.223447;-0.08042055756;0.05393003941;0.04714873105
34.238523;-0.07717622995;0.09031667769;0.07684849352
34.253599;-0.1345242593;0.1030027968;0.07999283373
34.268675;-0.1213554525;0.09880215704;0.09345487833
34.283751;-0.08566083223;0.05646539211;0.06796218753
34.298827;-0.09154225409;-0.03505698144;0.1001207042
34.313902;-0.1190648058;-0.07483442008;0.09424834549
34.328978;-0.07541124791;-0.1592395627;0.08364997476
34.344054;-0.05553919315;-0.1834751022;0.1012957022
34.35913;-0.1154713994;-0.2445574558;0.1693239632
34.374206;-0.1723028272;-0.2666096449;0.2012199399
34.389282;-0.1642047259;-0.2927279878;0.2526456168
34.404358;-0.1654408273;-0.2711546856;0.3019844225
34.419434;-0.1757874754;-0.1747978342;0.3587187865
34.43451;-0.1788411838;-0.1426334703;0.3816819718
34.449586;-0.1726460588;-0.1254724771;0.4225832453
34.464662;-0.1593798959;-0.1393262851;0.4164106321
34.479738;-0.1759096822;-0.2075609529;0.394556956
34.494814;-0.1773059973;-0.1861139506;0.3761189309
34.50989;-0.2151576555;-0.1594313514;0.3855469814
34.524966;-0.2314289948;-0.1653469795;0.3821053103
34.540041;-0.2669072682;-0.2519237781;0.3945815143
34.555117;-0.2927773967;-0.2917538416;0.3927203456
34.570193;-0.3390984544;-0.3603995687;0.4244230717
34.585269;-0.4024954283;-0.3904402238;0.4360549378
34.600345;-0.4652401453;-0.3855472738;0.5294539753
