"Time (s)";"Acceleration x (m/s^2)";"Acceleration y (m/s^2)";"Acceleration z (m/s^2)"
2.869856300E-2;-3.173514366E0;2.884414434E0;8.487444878E0
4.536455300E-2;-1.947683096E0;2.219424963E0;7.806893349E0
6.203054200E-2;-2.209249735E0;2.779668093E0;7.253233910E0
7.869653200E-2;-2.330755472E0;3.434482336E0;6.773196697E0
9.536252200E-2;-2.446874142E0;3.839700937E0;6.350021362E0
1.120285110E-1;-2.372653961E0;3.625419855E0;6.475118637E0
1.286945010E-1;-2.578555346E0;3.360262156E0;6.631340027E0
1.453604900E-1;-2.718017578E0;3.412934542E0;6.950367451E0
1.620264800E-1;-2.099116325E0;3.469796896E0;7.516596317E0
1.786924700E-1;-1.737591863E0;3.623025656E0;8.133103371E0
1.953584590E-1;-2.121262789E0;3.939658880E0;8.233060837E0
2.120244490E-1;-2.655169725E0;4.300584793E0;8.067861557E0
2.286904380E-1;-2.855684042E0;4.234744072E0;7.153874874E0
2.453564280E-1;-2.251746655E0;3.799597979E0;6.915651798E0
2.620224170E-1;-1.778891921E0;3.819948912E0;6.681618214E0
2.786884070E-1;-1.717241168E0;3.828328609E0;7.062296391E0
2.953543970E-1;-1.587355733E0;3.725377798E0;7.486070156E0
3.120203860E-1;-1.140837073E0;3.973776340E0;7.587823868E0
3.286863760E-1;-1.365293503E0;3.872022629E0;7.778761387E0
3.453523650E-1;-2.053027868E0;3.433883905E0;8.648454666E0
3.620183550E-1;-1.929726601E0;3.201047659E0;9.731831551E0
3.786843450E-1;-1.678335428E0;2.863465309E0;1.197340298E1
3.953503340E-1;-2.977189779E0;3.454234600E0;2.043989754E1
4.120163240E-1;-3.494935989E0;2.288258314E0;1.423233223E1
4.286823130E-1;-2.190694511E-1;1.313818216E0;1.217212105E1
4.453483030E-1;-4.668693244E-2;6.566098332E-1;9.641449928E0
4.620142920E-1;-1.978807688E0;3.752911091E-1;8.079233170E0
4.786802820E-1;-3.585915565E0;-2.513911724E-1;9.871891975E0
4.953462720E-1;-3.505111217E0;-9.684545994E-1;1.150114632E1
5.120122610E-1;-1.540668845E0;-7.338228226E-1;8.006210327E0
5.286782510E-1;-4.668693244E-1;-1.599925280E0;3.812167645E0
5.453442400E-1;2.044648170E0;-4.276642799E0;3.690661907E0
5.620102300E-1;4.062960148E0;-5.201403141E0;3.217807055E0
5.786762200E-1;2.591723442E0;-5.579687119E0;2.135029316E0
5.953422090E-1;-1.385045648E0;-7.040150166E0;1.060631394E0
6.120081990E-1;-5.141548157E0;-7.176619530E0;1.107318282E0
6.286741880E-1;-7.854178905E0;-5.234323502E0;1.744774461E0
6.453401780E-1;-1.201589966E1;-3.824737310E0;1.568202138E0
6.620061670E-1;-1.343326759E1;-4.848856926E0;1.768716455E0
6.786721570E-1;-1.407072353E1;-6.131550789E0;1.546055794E0
6.953381470E-1;-1.518941402E1;-4.724358559E0;6.512228847E-1
7.120041360E-1;-1.676360130E1;-1.414374709E0;-7.589619160E-1
7.286701260E-1;-1.693119621E1;-2.579752207E-1;-7.745242715E-1
7.453361150E-1;-1.468004799E1;-1.408389091E0;4.884171486E-1
7.620021050E-1;-1.144009399E1;-3.755305290E0;-2.000954151E0
7.786680950E-1;-1.328602409E1;-2.017114878E0;-2.568379879E0
7.953340840E-1;-1.541746140E1;-1.069011092E0;-2.040458441E0
8.119997390E-1;-1.588672543E1;-3.220201433E-1;-1.951274425E-1
8.286653640E-1;-1.889922905E1;1.000177741E0;-7.841010690E-1
8.453313540E-1;-1.883817673E1;-7.439981699E-1;-1.185728431E0
8.619973430E-1;-1.472074890E1;-1.937507749E0;-2.136825025E-1
8.786633330E-1;-1.147181702E1;-8.900445104E-1;1.701080322E0
8.953293230E-1;-1.090199757E1;-1.203086376E0;2.275090218E0
9.119953120E-1;-1.328542519E1;-1.736993313E0;2.879027605E0
9.286613020E-1;-1.558804893E1;-2.407968283E0;1.950077295E0
9.453272910E-1;-1.888366699E1;-2.862268209E0;-4.010287672E-2
9.619932810E-1;-2.115396881E1;-4.041412354E0;-1.561019540E0
9.786592710E-1;-1.962586975E1;-5.013458252E0;2.422932148E0
9.953252600E-1;-1.195903778E1;-3.390189648E0;1.512716484E1
1.011991250E0;-5.519233704E0;-1.126471877E0;8.849568367E0
1.028657239E0;-9.988011360E0;-4.560954273E-1;1.465849996E0
1.045323229E0;-1.172919369E1;-3.402160645E0;6.003460884E-1
1.061989218E0;-1.221461868E1;-2.583942175E0;-1.276708007E0
1.078655208E0;-1.182017422E1;-2.302024841E0;-3.029263735E0
1.095321198E0;-1.643619537E1;1.109712481E0;-2.090736628E0
1.111987187E0;-1.031362247E1;8.858546019E-1;-7.399878979E0
1.128653177E0;-2.039261341E0;-2.311601639E0;3.262099922E-1
1.145319166E0;-2.028487444E0;-2.813186944E-1;6.781576276E-1
1.161985156E0;-3.554790974E0;1.759738177E-1;-4.955997467E-1
1.178651146E0;-6.364386559E0;-3.740341663E0;8.846575022E-1
1.195317135E0;-6.280589581E0;-4.146757126E0;-5.005078793E0
1.211983125E0;-1.738788962E0;-6.678625584E0;-6.227318764E0
1.228649114E0;-5.967547894E-1;-7.975684643E0;7.583633661E-1
1.245315104E0;-1.285087705E0;-6.041169643E0;-5.907692909E-1
1.261981093E0;-3.006518841E0;-5.565321922E0;-1.275510907E0
1.278647083E0;-5.361216068E0;-2.146401882E0;1.422155857E0
1.295313073E0;-3.752911091E0;-3.181295395E0;3.766079187E0
1.311979062E0;-3.533243179E0;-9.537900925E0;2.339135170E0
1.328645052E0;-6.576871872E0;-9.957485199E0;-7.003039867E-2
1.345311041E0;-9.686341286E0;-9.695320129E0;-1.233013868E-1
1.361977031E0;-1.848323631E1;-8.215105057E0;-1.000776291E0
1.378643021E0;-2.593818283E1;-7.215525150E0;1.428141356E0
1.395309010E0;-2.165316010E1;-3.416525841E0;3.318363667E0
1.411975000E0;-8.862735748E0;-3.248333216E0;2.070385933E0
1.428640989E0;-8.040328026E0;-4.356249809E0;3.136404276E0
1.445306979E0;-9.003993988E0;-3.562572241E0;1.230619669E0
1.461972968E0;-7.724891663E0;-3.066373825E0;-1.045069098E0
1.478638958E0;-7.669825077E0;-3.420117140E0;1.262342811E0
1.495304948E0;-6.925827026E0;-5.207388878E0;1.516726732E0
1.511970937E0;-6.770802498E0;-4.802170277E0;-3.016694188E-1
1.528636927E0;-6.292560577E0;-2.940678120E0;8.984242082E-1
1.545302916E0;-4.970362663E0;-1.935113549E0;1.460463047E0
1.561968906E0;-6.713341713E0;-4.429273129E0;1.343147159E0
1.578634896E0;-7.115567684E0;-9.085396767E0;4.578910768E-1
1.595300885E0;-1.594418621E1;-1.296280670E1;1.143829823E0
1.611966875E0;-1.712572479E1;-1.249773312E1;2.182314873E0
1.628632864E0;-3.651157618E0;-1.046266174E1;-3.770269156E0
1.645298854E0;-3.215412855E0;-9.806650162E0;8.056488633E-1
1.661964843E0;-9.435548782E0;-1.202727222E1;4.567538261E0
1.678630833E0;-1.059913063E1;-1.489073753E1;3.041833162E0
1.695296823E0;-1.110490608E1;-1.353980923E1;2.324769735E0
1.711962812E0;-7.528567314E0;-1.151730728E1;2.820968151E0
1.728628802E0;-6.796540260E0;-1.118032360E1;3.437475204E0
1.745294791E0;-6.773196697E0;-1.104744530E1;1.687313676E0
1.761960781E0;-9.301473618E0;-1.126172638E1;1.874659896E0
1.778626771E0;-8.122927666E0;-8.969876289E0;6.775590777E-1
1.795292760E0;-6.987477779E0;-7.061697960E0;1.464054346E0
1.811958750E0;-1.257554412E0;-5.562927723E0;-1.197100803E-2
1.828624739E0;5.488707423E-1;-6.081871033E0;6.350619793E-1
1.845290729E0;1.231218219E0;-5.151124954E0;6.440402865E-1
1.861956718E0;-9.552865028E-1;-2.765302896E0;1.408987641E0
1.878622708E0;-2.144606113E0;-1.620275974E0;2.396595955E0
1.895288698E0;-3.636792421E0;-1.000177741E0;2.191891670E0
1.911954687E0;-3.655946016E0;-5.644330382E-1;1.329380512E0
1.928620677E0;-3.308786631E0;-4.566939771E-1;2.111087322E0
1.945286666E0;-3.200449228E0;-2.645592928E0;3.418920040E0
1.961952656E0;-3.565564871E0;-5.089474201E0;3.872022629E0
1.978618646E0;-5.140949726E0;-3.903745890E0;1.657386184E0
1.995284635E0;-6.290166378E0;-3.712209702E0;9.331400990E-1
2.011950625E0;-3.390189648E0;-9.540295601E0;1.187524080E0
2.028616614E0;-4.482543945E0;-9.692925453E0;1.087566137E0
2.045282604E0;-7.993640900E0;-7.530363083E0;-2.729389966E-1
2.061948593E0;-9.194333076E0;-7.140706539E0;-2.992752008E-3
2.078614583E0;-8.886079788E0;-8.812458038E0;-6.368576288E-1
2.095280573E0;-5.695806026E0;-9.635464668E0;-1.256955862E-1
2.111946562E0;-3.708618402E0;-1.033936024E1;9.020155072E-1
2.128612552E0;-5.215169907E0;-1.456512642E1;2.351106167E0
2.145278541E0;-2.398990154E0;-1.941398239E1;-1.770512104E0
2.161944531E0;7.841010392E-2;-1.895429611E1;-3.098097086E0
2.178610521E0;-2.849099934E-1;-1.341830349E1;-1.892017841E0
2.195276510E0;3.772064686E0;-5.322908878E0;-1.741781712E0
2.211942500E0;-1.674744129E0;-7.720701694E0;-8.731055260E0
2.228608489E0;-2.226607561E0;-1.045488071E1;-2.710236311E0
2.245274479E0;-5.948394299E0;-1.198118401E1;-2.254739523E0
2.261940468E0;-8.118139267E0;-1.255459499E1;-9.109937549E-1
2.278606458E0;-6.104017258E0;-1.054466248E1;2.536656618E0
2.295272448E0;-6.560112834E-1;-8.380304337E0;1.951274425E-1
2.311938437E0;5.494692922E-1;-8.166622162E0;-5.135562420E-1
2.328604427E0;8.020575345E-2;-8.140285492E0;-2.531868219E-1
2.345270416E0;-1.071405262E-1;-9.282918930E0;-1.198896527E0
2.361936406E0;-1.141435623E0;-1.113842487E1;-1.869871497E0
2.378602396E0;-3.445256233E0;-1.056082344E1;1.722628117E0
2.395268385E0;-2.289455414E0;-9.287108421E0;4.447229803E-1
2.411934375E0;-8.152256608E-1;-9.751583099E0;-3.122039080E0
2.428600364E0;3.262099922E-1;-9.138069153E0;-2.381033659E0
2.445266354E0;4.195838571E-1;-7.973290443E0;-5.321113467E-1
2.461932343E0;-7.511807680E-1;-7.438186169E0;5.991489887E-1
2.478598333E0;-3.132214308E0;-8.368333817E0;2.394201756E-1
2.495264323E0;-4.931457043E0;-9.707290649E0;-1.383848548E0
2.511930312E0;-5.289988518E0;-1.034354973E1;-1.499368787E0
2.528596302E0;-4.939238071E0;-9.672574997E0;-5.386953708E-3
2.545262291E0;-4.948814869E0;-8.293514252E0;1.220444322E0
2.561928281E0;-5.691017628E0;-7.262810707E0;1.565807939E0
2.578594271E0;-6.794146061E0;-6.850409508E0;1.212064624E0
2.595260260E0;-7.410652637E0;-6.450577736E0;9.816226959E-1
2.611926250E0;-6.998251438E0;-5.936423302E0;1.801636815E0
2.628592239E0;-6.491878033E0;-5.950189590E0;1.916558504E0
2.645258229E0;-5.924452305E0;-6.677428722E0;1.212663174E0
2.661924218E0;-5.270834923E0;-7.705738068E0;1.063025594E0
2.678590208E0;-6.567295074E0;-8.901042938E0;2.145204782E0
2.695256198E0;-8.462904930E0;-1.119169617E1;2.188300371E0
2.711922187E0;-7.449558735E0;-1.444601440E1;-2.064998895E-1
2.728588177E0;-3.664325714E0;-1.896207809E1;-4.389768600E0
2.745254166E0;1.035492182E0;-2.398391533E1;-6.643909931E0
2.761920156E0;3.712209702E0;-2.604652023E1;-5.942408562E0
2.778586146E0;-3.268085420E-1;-1.780867004E1;-3.013701439E0
2.795252135E0;-6.205172062E0;-9.743204117E0;-1.181538582E0
2.811918125E0;-1.357811642E1;-5.811326027E0;2.640205860E0
2.828584114E0;-1.548988628E1;-4.978143692E0;3.552995205E0
2.845250104E0;-7.679401875E0;-6.530185223E0;2.557605982E0
2.861916093E0;-3.620033026E0;-6.782773495E0;3.147776604E0
2.878582083E0;-1.821987510E0;-6.946776390E0;2.679111719E0
2.895248073E0;-7.158663273E-1;-6.572682381E0;4.094084799E-1
2.911914062E0;-6.123170853E-1;-5.568912983E0;-1.191115379E0
2.928580052E0;-7.846996188E-1;-5.132569790E0;-1.581968784E0
2.945246041E0;-9.528923035E-1;-5.400720596E0;-2.222417831E0
2.961912031E0;-8.439561129E-1;-5.805340767E0;-2.548627615E0
2.978578021E0;-3.040636182E-1;-6.173449039E0;-1.859696150E0
2.995244010E0;-2.328361124E-1;-6.593032837E0;-1.192312479E0
3.011910000E0;-5.494692922E-1;-7.171232700E0;-4.650736749E-1
3.028575989E0;-2.454655409E0;-7.827842236E0;6.290764809E-1
3.045241979E0;-5.607220173E0;-8.628104210E0;1.695094824E0
3.061907968E0;-8.061277390E0;-9.343372345E0;2.042253971E0
3.078573958E0;-9.679757118E0;-9.125499725E0;1.301248670E0
3.095239948E0;-9.814431190E0;-7.691971302E0;7.679402232E-1
3.111905937E0;-8.798690796E0;-6.671442986E0;1.103128433E0
3.128571927E0;-8.024167061E0;-6.576871872E0;1.328781962E0
3.145237916E0;-7.198765755E0;-6.797138691E0;9.187749028E-1
3.161903906E0;-6.721122742E0;-6.905476093E0;2.088941038E-1
3.178569896E0;-7.003638744E0;-6.551134586E0;-1.783680320E-1
3.195235885E0;-7.222707748E0;-5.788581371E0;1.526303589E-1
3.211901875E0;-7.076063156E0;-5.284003258E0;7.338228226E-1
3.228567864E0;-6.338050365E0;-5.661089897E0;1.303044319E0
3.245233854E0;-6.517016888E0;-7.611765862E0;1.877054095E0
3.261899843E0;-7.411849976E0;-1.044530392E1;5.159504414E-1
3.278565833E0;-7.766191959E0;-1.263360405E1;-2.041056871E0
3.295231823E0;-7.816470146E0;-1.304600525E1;-3.723582268E0
3.311897812E0;-6.496067524E0;-1.028608894E1;-2.834734917E0
3.328563802E0;-5.664082527E0;-8.372523308E0;9.576807022E-1
3.345229791E0;-6.328473568E0;-8.145672798E0;4.624999046E0
3.361895781E0;-4.629189014E0;-8.818443298E0;4.061763287E0
3.378561771E0;-2.127846718E0;-8.426991463E0;9.864110947E-1
3.395227760E0;-1.134253025E0;-7.798513412E0;-1.478419542E0
3.411893750E0;-9.463081956E-1;-8.425794601E0;-3.265691042E0
3.428559739E0;-1.655590534E0;-9.071630478E0;-4.534617901E0
3.445225729E0;-2.213439465E0;-9.079411507E0;-4.958391666E0
3.461891718E0;-2.909553528E0;-9.212289810E0;-4.557961464E0
3.478557708E0;-3.037643433E0;-9.423578262E0;-3.350086689E0
3.495223698E0;-3.702034473E0;-9.534309387E0;-1.897404790E0
3.511889687E0;-5.314529419E0;-9.557054520E0;-3.705027103E-1
3.528555677E0;-5.899312973E0;-9.366117477E0;5.506663918E-1
3.545221666E0;-5.099050999E0;-8.722076416E0;1.306037068E0
3.561887656E0;-4.513070107E0;-8.253412247E0;1.465251446E0
3.578553646E0;-4.441244125E0;-7.903858185E0;-6.165069342E-2
3.595219635E0;-5.122394562E0;-7.828441143E0;-1.869272947E0
3.611885625E0;-5.841253757E0;-7.816470146E0;-3.049614429E0
3.628551614E0;-6.143521786E0;-7.800309181E0;-3.290830135E0
3.645217604E0;-6.559514046E0;-7.538742542E0;-2.731185675E0
3.661883593E0;-6.747458935E0;-7.277774811E0;-1.604115129E0
3.678549583E0;-6.019621849E0;-7.423820972E0;-4.656722248E-1
3.695215573E0;-4.853645325E0;-8.143278122E0;-8.020575345E-2
3.711881562E0;-4.140771866E0;-8.868721962E0;4.608838260E-2
3.728547552E0;-3.910928488E0;-9.269750595E0;1.705868691E-1
3.745213541E0;-3.902548790E0;-9.145850182E0;1.233013868E-1
3.761879531E0;-4.547786236E0;-8.735843658E0;9.696517140E-2
3.778545521E0;-5.522824764E0;-8.282142639E0;-3.591302410E-2
3.795211510E0;-6.089652061E0;-7.851784706E0;-3.076549172E-1
3.811877500E0;-6.172252178E0;-7.355586052E0;-5.177460909E-1
3.828543489E0;-6.259041786E0;-6.785766125E0;-5.458779931E-1
3.845209479E0;-6.742670536E0;-6.436212540E0;-2.675520480E-1
3.861875468E0;-6.806117058E0;-6.387730122E0;1.969230920E-1
3.878541458E0;-6.278793812E0;-6.424241543E0;7.858967185E-1
3.895207448E0;-5.674856663E0;-6.212953568E0;1.688510776E0
3.911873437E0;-6.078279495E0;-6.008847713E0;1.950675845E0
3.928539427E0;-7.981071472E0;-6.994061947E0;1.758541107E0
3.945205416E0;-9.794080734E0;-1.002392387E1;1.238999367E0
3.961871406E0;-9.677961349E0;-1.359547424E1;1.035492182E0
3.978537396E0;-7.688978672E0;-1.569459057E1;4.836287498E-1
3.995203385E0;-5.184643745E0;-1.560839939E1;3.525462151E-1
4.011869375E0;-2.967612982E0;-1.445199966E1;2.512116194E0
4.028535364E0;5.626374111E-2;-1.409406662E1;4.353257179E0
4.045201354E0;2.413953781E0;-1.344583702E1;5.404910445E-1
4.061867343E0;1.400009394E0;-1.110490608E1;-2.409165382E0
4.078533333E0;-2.522291422E0;-8.640075684E0;-2.905363798E0
4.095199323E0;-1.023341656E1;-7.326855659E0;-1.941697598E0
4.111865312E0;-1.721490860E1;-6.104017258E0;-4.189852998E-2
4.128531302E0;-1.874001503E1;-5.002085686E0;5.363011956E-1
4.145197291E0;-9.265560150E0;-6.933009624E0;1.178545833E0
4.161863281E0;-4.576516628E0;-7.951742172E0;1.307234168E0
4.178529271E0;-1.462857246E0;-8.588600159E0;1.105522633E0
4.195195260E0;4.118026793E-1;-8.582015991E0;-2.813186944E-1
4.211861250E0;7.134721279E-1;-7.392696381E0;-1.771110654E0
4.228527239E0;4.255693555E-1;-5.788581371E0;-2.176329374E0
4.245193229E0;2.962824702E-1;-4.390965939E0;-1.264138460E0
4.261859218E0;-3.232172132E-2;-3.921702385E0;-1.137245819E-1
4.278525208E0;-1.307832718E0;-4.613028049E0;4.560954273E-1
4.295191198E0;-2.077568531E0;-5.623979568E0;1.164180517E0
4.311857187E0;-2.418143749E0;-5.859210014E0;2.526481390E0
4.328523177E0;-3.117250681E0;-5.382165432E0;4.150947094E0
4.345189166E0;-5.412093163E0;-4.814141273E0;3.415927172E0
4.361855156E0;-1.012268448E1;-3.949235678E0;-5.380968451E-1
4.378521146E0;-1.528997040E1;-3.583521366E0;-2.439691544E0
4.395187135E0;-1.751837349E1;-4.183867455E0;-1.390432596E0
4.411853125E0;-1.304241371E1;-7.787739754E0;-8.858546615E-2
4.428519114E0;-1.077570343E1;-1.567723274E1;3.510498285E0
4.445185104E0;-6.572083473E0;-2.074216652E1;1.153406620E0
4.461851093E0;-2.182913303E0;-1.815882301E1;-2.292448133E-1
4.478517083E0;1.372476101E0;-1.386003399E1;-3.412934542E0
4.495183073E0;1.696890473E0;-1.024778175E1;-2.508524895E0
4.511849062E0;1.818396211E0;-8.163030624E0;-1.967435241E0
4.528515052E0;9.540894032E-1;-7.572859764E0;-2.480991602E0
4.545181041E0;-5.129576921E-1;-8.200140953E0;-3.071162224E0
4.561847031E0;-2.458845139E0;-9.341576576E0;-2.649184227E0
4.578513021E0;-4.900332451E0;-1.086967564E1;-2.200271368E0
4.595179010E0;-8.197148323E0;-1.174236202E1;-2.465429306E0
4.611845000E0;-1.147900009E1;-9.641449928E0;-4.340687752E0
4.628510989E0;-1.240136623E1;-5.969343185E0;-2.244564056E0
4.645176979E0;-9.375095367E0;-4.574720860E0;4.171896577E-1
4.661842968E0;-6.442796707E0;-4.730942726E0;2.196081400E0
4.678508958E0;-4.865616322E0;-4.977545261E0;2.273294449E0
4.695174948E0;-4.088697910E0;-5.494692802E0;1.005564690E0
4.711840937E0;-3.745728493E0;-6.537367821E0;-4.788403511E-1
4.728506927E0;-3.331531763E0;-7.626131058E0;-1.556231141E0
4.745172916E0;-2.425326347E0;-8.270171165E0;-1.854309201E0
4.761838906E0;-2.088342428E0;-8.670002937E0;-1.883638144E0
4.778504896E0;-2.200271368E0;-9.064447403E0;-1.756146908E0
4.795170885E0;-2.642600060E0;-9.194333076E0;-1.305438519E0
4.811836875E0;-3.281253338E0;-9.094973564E0;-2.232593149E-1
4.828502864E0;-4.148552895E0;-9.091382027E0;5.518634915E-1
4.845168854E0;-5.279214859E0;-9.223662376E0;2.741360962E-1
4.861834843E0;-6.162675381E0;-8.959102631E0;-3.770867586E-1
4.878500833E0;-7.089231014E0;-8.164826393E0;-4.309563041E-1
4.895166823E0;-8.148665428E0;-6.918045998E0;2.286462635E-1
4.911832812E0;-8.794501305E0;-5.794566631E0;7.972691655E-1
4.928498802E0;-9.348160744E0;-5.312733650E0;1.043273449E0
4.945164791E0;-9.576807022E0;-5.892728806E0;6.284779310E-1
4.961830781E0;-1.087506294E1;-8.004414558E0;7.775170207E-1
4.978496771E0;-1.065180302E1;-1.032260036E1;4.381389022E-1
4.995162760E0;-8.793304443E0;-1.248516369E1;-2.519897223E-1
5.011828750E0;-5.567716122E0;-1.478419590E1;8.379706144E-1
5.028494739E0;-1.982997537E0;-1.675821495E1;3.527856112E0
5.045160729E0;-4.507084787E-1;-1.757882690E1;2.921524525E0
5.061826718E0;1.744175911E0;-1.718438339E1;-9.894038439E-1
5.078492708E0;3.830124140E0;-1.538094997E1;-3.879803896E0
5.095158698E0;2.537255287E0;-1.170465374E1;-4.358644009E0
5.111824687E0;-2.735375464E-1;-9.433753014E0;-4.735731125E0
5.128490677E0;-6.462548733E0;-7.744045258E0;-2.692279816E0
5.145156666E0;-1.610938644E1;-5.739500046E0;2.487575531E0
5.161822656E0;-1.415691471E1;-6.372167587E0;3.143586874E0
5.178488646E0;-6.989273548E0;-8.352770805E0;1.658583283E0
5.195154635E0;-4.990114689E0;-8.035539627E0;5.482721925E-1
5.211820625E0;-3.283647537E0;-7.096413612E0;1.298854351E-1
5.228486614E0;-1.919551253E0;-6.208763599E0;-1.043871999E0
5.245152604E0;-1.431732655E0;-5.041590214E0;-1.878251195E0
5.261818593E0;-5.177460909E-1;-4.273051262E0;-1.926135302E0
5.278484583E0;5.644330382E-1;-3.871424198E0;-1.565209389E0
5.295150573E0;1.575384736E0;-3.879803896E0;-1.229422569E0
5.311816562E0;2.026691675E0;-3.959411144E0;-5.704185367E-1
5.328482552E0;2.208052635E0;-4.207211018E0;1.298854351E-1
5.345148541E0;2.029085875E0;-4.580706596E0;7.212532759E-1
5.361814531E0;2.783259451E-1;-5.184045315E0;3.447052002E0
5.378480521E0;-4.739322186E0;-6.745064735E0;8.419808388E0
5.395146510E0;-1.564131927E1;-9.547477722E0;9.021351814E0
5.411812500E0;-2.630748749E1;-9.145850182E0;-3.205836058E0
5.428478489E0;-2.952409744E1;-8.101978302E0;-5.908889771E0
5.445144479E0;-1.712632370E1;-5.759850502E0;2.398990154E0
5.461810468E0;-8.683171272E0;-4.904522419E0;1.962646842E0
5.478476458E0;-4.953603268E0;-1.222898388E1;-7.152677774E-1
5.495142448E0;-4.207809448E0;-2.167650414E1;-7.690176010E0
5.511808437E0;-3.776254654E0;-2.232054329E1;-5.096656799E0
5.528474427E0;7.649474144E-1;-1.485542297E1;3.545214176E0
5.545140416E0;4.353855610E0;-9.736021042E0;2.908356428E0
5.561806406E0;4.431068897E0;-7.828441143E0;-6.386532784E-1
5.578472396E0;3.186083794E0;-8.013393402E0;-2.797624588E0
5.595138385E0;7.469909191E-1;-1.018852520E1;-4.106055737E0
5.611804375E0;-8.032546639E-1;-1.215476322E1;-2.834734917E0
5.628470364E0;-2.044049740E0;-1.336144066E1;-1.695693374E0
5.645136354E0;-2.728192806E0;-1.311064816E1;-1.277306557E0
5.661802343E0;-3.933673382E0;-1.142632771E1;-1.162384868E0
5.678468333E0;-5.486911774E0;-8.960898399E0;-1.981800437E0
5.695134323E0;-7.261015415E0;-6.364386559E0;-4.501099110E0
5.711800312E0;-8.899846077E0;-3.878606796E0;-4.845265865E0
5.728466302E0;-9.134477615E0;-2.771887064E0;-1.783680320E0
5.745132291E0;-7.884704590E0;-2.113481522E0;1.098938584E0
5.761798281E0;-6.650493622E0;-2.519897223E0;1.498171687E0
5.778464271E0;-6.374562263E0;-3.666121244E0;-2.992752008E-3
5.795130260E0;-6.197391033E0;-5.836465359E0;-8.469488621E-1
5.811796250E0;-4.781819344E0;-8.434772491E0;-7.733271718E-1
5.828462239E0;-2.984971046E0;-1.065479565E1;-9.828197956E-1
5.845128229E0;-1.225831270E0;-1.185548782E1;-8.343793154E-1
5.861794218E0;-4.135983288E-1;-1.208592987E1;1.316810958E-2
5.878460208E0;-1.981201887E0;-1.142872143E1;9.295488000E-1
5.895126198E0;-5.307945251E0;-1.006821632E1;1.115697980E0
5.911792187E0;-8.134899139E0;-8.734646797E0;5.057750940E-1
5.928458177E0;-9.866505623E0;-6.958747387E0;-3.914519846E-1
5.945124166E0;-1.084034634E1;-5.055955410E0;-7.900865674E-1
5.961790156E0;-1.123778439E1;-3.637989521E0;-6.045359373E-1
5.978456146E0;-1.073679733E1;-3.766677856E0;6.973112226E-1
5.995122135E0;-8.921394348E0;-6.083666325E0;2.266710520E0
6.011788125E0;-7.520187378E0;-9.356540680E0;2.151788712E0
6.028454114E0;-7.838017941E0;-1.200512600E1;1.156399369E0
6.045120104E0;-7.044938564E0;-1.284429359E1;3.842693865E-1
6.061786093E0;-6.145317078E0;-1.266113758E1;1.075595140E0
6.078452083E0;-5.178059578E0;-1.423951435E1;1.330577612E0
6.095118073E0;-2.653373957E0;-1.721071815E1;-7.858967185E-1
6.111784062E0;1.580173075E-1;-1.884057236E1;-3.806780815E0
6.128450052E0;1.398213744E0;-1.797027969E1;-4.492719650E0
6.145116041E0;1.913565755E0;-1.622670174E1;-3.149572372E0
6.161782031E0;1.051054597E0;-1.384506989E1;-1.781884670E0
6.178448021E0;-2.895188332E0;-1.037706852E1;-1.878251195E0
6.195114010E0;-8.452729225E0;-7.030573368E0;-6.494272351E-1
6.211780000E0;-1.104864216E1;-5.127781391E0;2.206256866E0
6.228445989E0;-8.881291389E0;-4.980537891E0;2.366668463E0
6.245111979E0;-6.867168903E0;-5.341464043E0;1.706467271E0
6.261777968E0;-5.894524574E0;-4.986523628E0;1.629254222E0
6.278443958E0;-4.031835556E0;-5.024232388E0;9.846154451E-1
6.295109948E0;-2.558803082E0;-4.933851242E0;-2.693476975E-1
6.311775937E0;-1.232415318E0;-4.577713490E0;-1.328781962E0
6.328441927E0;6.464344263E-2;-4.137180328E0;-2.124854088E0
6.345107916E0;1.219845772E0;-3.790619850E0;-2.692279816E0
6.361773906E0;2.560598612E0;-3.930082083E0;-2.883816004E0
6.378439896E0;3.226186752E0;-3.832518339E0;-2.267308950E0
6.395105885E0;3.071760893E0;-3.588309765E0;-1.076792240E0
6.411771875E0;2.209848166E0;-3.957615376E0;7.110779285E-1
6.428437864E0;-1.164779186E0;-4.769848347E0;4.701613426E0
6.445103854E0;-6.986878872E0;-7.672219276E0;1.055004978E1
6.461769843E0;-1.853710747E1;-1.230380249E1;6.621763229E0
6.478435833E0;-2.801096344E1;-1.192252636E1;-4.970362663E0
6.495101823E0;-3.126887321E1;-8.491635323E0;-2.142810524E-1
6.511767812E0;-1.722508430E1;-4.492120743E0;6.806715488E0
6.528433802E0;-7.616554260E0;-3.233968019E0;4.348468781E0
6.545099791E0;-1.607706428E0;-5.639542103E0;-2.874239206E0
6.561765781E0;-1.000776291E0;-1.521754646E1;-8.173804283E0
6.578431771E0;-3.918111086E0;-2.231755066E1;-1.215596104E1
6.595097760E0;-7.544129372E0;-2.281434822E1;-3.591901064E0
6.611763750E0;-4.032433987E0;-1.318666458E1;1.511878490E1
6.628429739E0;2.568978310E0;-1.040639782E1;2.393004656E0
6.645095729E0;4.892550945E0;-9.469666481E0;-2.038064241E0
6.661761718E0;1.996764183E0;-8.494029045E0;-2.355295897E0
6.678427708E0;-8.020575643E-1;-8.793902397E0;-3.068768024E0
6.695093698E0;-2.087743998E0;-8.997409821E0;-4.020462990E0
6.711759687E0;-2.657563925E0;-9.469666481E0;-4.433463097E0
6.728425677E0;-3.084330320E0;-9.488221169E0;-4.280832767E0
6.745091666E0;-3.657741547E0;-8.835801125E0;-3.065775394E0
6.761757656E0;-4.687248230E0;-8.163030624E0;-2.279279947E0
6.778423646E0;-6.486490726E0;-7.302315235E0;-4.064157486E0
6.795089635E0;-1.001554394E1;-5.683236122E0;-6.546346188E0
6.811755625E0;-1.179503441E1;-3.995922565E0;-4.746504724E-1
6.828421614E0;-1.054586029E1;-2.798223257E0;3.047818661E0
6.845087604E0;-8.094796181E0;-2.894589901E0;3.731363297E0
6.861753593E0;-5.825691223E0;-4.170699596E0;9.014169574E-1
6.878419583E0;-4.222174644E0;-6.753444672E0;-1.281496406E0
6.895085573E0;-2.339733601E0;-9.331999779E0;-2.349310398E0
6.911751562E0;-4.926069975E-1;-1.141435623E1;-3.496133089E0
6.928417552E0;1.451484799E0;-1.255100346E1;-2.123656988E0
6.945083541E0;2.461838007E0;-1.282095051E1;-4.106055796E-1
6.961749531E0;-6.099228859E-1;-1.204582691E1;2.282272816E0
6.978415521E0;-5.954977989E0;-1.028728580E1;3.491943121E0
6.995081510E0;-9.563039780E0;-8.286332130E0;1.607706428E0
7.011747500E0;-1.184052467E1;-5.863998413E0;-7.314286232E-1
7.028413489E0;-1.333450603E1;-3.065775394E0;-1.815403461E0
7.045079479E0;-1.432929707E1;-1.463455796E0;-7.613561153E-1
7.061745468E0;-1.326387787E1;-3.138798475E0;1.589749932E0
7.078411458E0;-1.181897640E1;-7.085041523E0;9.648633003E-1
7.095077448E0;-1.154603767E1;-1.129404831E1;-1.260547161E0
7.111743437E0;-8.761581421E0;-1.418025780E1;-2.213439465E0
7.128409427E0;-4.812943935E0;-1.657027054E1;-6.919242740E-1
7.145075416E0;-1.200093627E0;-1.879568100E1;2.506130695E0
7.161741406E0;4.734533727E-1;-2.057696724E1;1.015141487E0
7.178407396E0;2.949656487E0;-2.108992386E1;-1.262941360E0
7.195073385E0;3.464409828E0;-1.873343086E1;-1.833958507E0
7.211739375E0;2.018311977E0;-1.498590660E1;-2.210446835E0
7.228405364E0;-1.005564690E0;-1.172859573E1;-5.024232388E0
7.245071354E0;-7.898471355E0;-8.119336128E0;-4.356249809E0
7.261737343E0;-1.390013695E1;-6.181828976E0;4.017470360E0
7.278403333E0;-6.463746071E0;-8.352172852E0;3.007715940E0
7.295069323E0;-3.834314108E0;-8.210914612E0;5.829881430E-1
7.311735312E0;-5.118803024E0;-4.865616322E0;5.321113467E-1
7.328401302E0;-4.490923882E0;-2.819771051E0;-8.140286058E-2
7.345067291E0;-3.910928488E0;-1.656787634E0;-1.186326981E0
7.361733281E0;-3.268085241E0;-9.540894032E-1;-2.248155355E0
7.378399271E0;-2.062006235E0;-5.752069354E-1;-2.476203203E0
7.395065260E0;-3.046621680E-1;-5.811924338E-1;-2.057217836E0
7.411731250E0;2.027888775E0;-1.090558887E0;-1.574187636E0
7.428397239E0;4.999093056E0;-2.005742550E0;-1.804031014E0
7.445063229E0;7.176021099E0;-3.085527420E0;-1.236006618E0
7.461729218E0;4.608838081E0;-3.901950121E0;5.304952621E0
7.478395208E0;-1.066557026E1;-5.975927353E0;1.527680206E1
7.495061198E0;-2.716161919E1;-7.530961514E0;-3.409343243E0
7.511727187E0;-3.107374573E1;-1.097980881E1;-1.046984386E1
7.528393177E0;-1.748246002E1;-9.627084732E0;3.645172119E0
7.545059166E0;-1.059913063E1;-5.272630692E0;1.280059910E1
7.561725156E0;-4.029441357E0;-1.412578964E1;7.216124058E0
7.578391146E0;2.695272446E0;-2.528097343E1;-9.488820076E0
7.595057135E0;-1.115099430E0;-2.567362404E1;-1.177707863E1
7.611723125E0;-4.411316395E0;-1.897105598E1;-5.376778603E0
7.628389114E0;9.313444495E-1;-1.309209347E1;-5.009866953E-1
7.645055104E0;4.945223808E0;-1.140537834E1;-3.740940094E-1
7.661721093E0;4.427477360E0;-1.197699356E1;-2.033874273E0
7.678387083E0;1.090558887E0;-1.163641834E1;-1.921945453E0
7.695053073E0;-1.621473074E0;-1.097083092E1;-1.666364431E0
7.711719062E0;-3.630208254E0;-1.028249741E1;-1.783680320E0
7.728385052E0;-5.796362400E0;-9.856928825E0;-2.943670988E0
7.745051041E0;-7.721300602E0;-8.640673637E0;-4.462193489E0
7.761717031E0;-8.061277390E0;-6.240486622E0;-6.161478043E0
7.778383021E0;-7.902062893E0;-3.365050554E0;-3.931877851E0
7.795049010E0;-6.790554523E0;-1.130063176E0;-6.386532784E-1
7.811715000E0;-5.045181751E0;3.585317135E-1;2.162562609E0
7.828380989E0;-4.180874825E0;-1.340752989E-1;3.082534790E0
7.845046979E0;-4.861426353E0;-1.751957059E0;9.289502501E-1
7.861712968E0;-5.006874084E0;-3.766079187E0;-1.435323954E0
7.878378958E0;-5.322310448E0;-6.643909931E0;-2.792237759E0
7.895044948E0;-6.499060631E0;-1.070687008E1;-4.726154327E0
7.911710937E0;-7.691372871E0;-1.395161152E1;-1.610100627E0
7.928376927E0;-6.063315868E0;-1.323155594E1;4.078522682E0
7.945042916E0;-5.494692802E0;-1.130601883E1;6.199785233E0
7.961708906E0;-8.021772385E0;-8.535927773E0;6.817489147E0
7.978374896E0;-9.218873978E0;-6.198588371E0;9.106346130E0
7.995040885E0;-9.089587212E0;-6.525995255E0;6.770802498E0
8.011706875E0;-8.453327179E0;-7.410652637E0;1.215057373E0
8.028372864E0;-7.527968884E0;-6.718728542E0;-4.015076160E0
8.045038854E0;-6.496067524E0;-5.880757809E0;-3.915716887E0
8.061704843E0;-6.986280441E0;-6.189011574E0;-1.355118155E0
8.078370833E0;-8.330026627E0;-7.427412033E0;8.511387110E-1
8.095036823E0;-6.767809868E0;-9.813833237E0;1.408389091E0
8.111702812E0;-4.900930882E0;-1.455854225E1;-7.751228213E-1
8.128368802E0;-4.893748283E0;-1.832222748E1;-4.798578739E0
8.145034791E0;-5.629965305E0;-2.251148224E1;-9.063250542E0
8.161700781E0;-5.802347660E0;-2.791938400E1;-9.399636269E0
8.178366771E0;-1.408568668E1;-2.435501671E1;1.157895756E1
8.195032760E0;-1.170345688E1;-1.638890839E1;5.504269600E0
8.211698750E0;-7.310096264E0;-1.407132149E1;-3.272873640E0
8.228364739E0;-8.471882820E0;-1.209131718E1;-5.403713226E0
8.245030729E0;-8.814253807E0;-1.005983734E1;-2.601300240E0
8.261696718E0;-5.586869717E0;-9.277531624E0;4.058171809E-1
8.278362708E0;-3.892971992E0;-7.883507729E0;2.244564146E-1
8.295028698E0;-1.776497602E0;-6.087257862E0;-7.344213724E-1
8.311694687E0;9.840168953E-1;-4.121019840E0;-1.194706678E0
8.328360677E0;4.243124008E0;-2.477400303E0;-1.489791989E0
8.345026666E0;6.557718277E0;-1.316212416E0;-1.704671621E0
8.361692656E0;6.819284916E0;-2.304419130E-1;-1.898003340E0
8.378358646E0;4.615422249E0;9.091981053E-1;-2.916736126E0
8.395024635E0;3.390788078E0;1.759139657E0;-1.873462796E0
8.411690625E0;2.617460966E0;2.874239206E0;7.617751122E0
8.428356614E0;-1.337760210E0;3.421314240E0;8.932766914E0
8.445022604E0;-5.679046631E0;2.958036184E0;-1.769315004E0
8.461688593E0;-1.129943466E1;2.661155224E0;-1.158793569E0
8.478354583E0;-1.671392250E1;-4.917690277E0;8.251017570E0
8.495020573E0;-4.448426723E0;-7.803301811E0;-2.128445387E0
8.511686562E0;2.902969420E-1;-9.528324127E0;-6.175244808E0
8.528352552E0;4.032433987E0;-2.277783585E1;-9.949105263E0
8.545018541E0;3.985148668E0;-3.323092270E1;-7.508216381E0
8.561684531E0;6.631938815E-1;-3.190932083E1;-7.487865686E-1
8.578350521E0;-3.010110140E0;-2.381392670E1;-2.893991232E0
8.595016510E0;-6.822277546E0;-2.160647392E1;-2.010530949E0
8.611682500E0;-1.094090366E1;-1.880825043E1;-5.434837937E-1
8.628348489E0;-1.403062057E1;-1.679352951E1;2.513911761E-2
8.645014479E0;-1.360983944E1;-1.367208862E1;5.255272985E-1
8.661680468E0;-1.139161205E1;-9.926959038E0;-4.740519226E-1
8.678346458E0;-9.893440247E0;-7.611765862E0;-4.819528103E0
8.695012448E0;-8.722675323E0;-6.607398033E0;-5.972934723E0
8.711678437E0;-7.454945564E0;-6.361393929E0;-1.131260321E-1
8.728344427E0;-4.714781761E0;-6.417058945E0;5.946000099E0
8.745010416E0;-2.875436306E0;-5.683835030E0;8.023568153E0
8.761676406E0;-2.934692621E0;-3.936067581E0;6.603806973E0
8.778342396E0;-4.430470467E0;-1.849520802E0;2.395997286E0
8.795008385E0;-5.351040840E0;-1.298854351E-1;-3.770867586E-1
8.811674375E0;-5.671864033E0;1.713051319E0;-1.423352957E0
8.828340364E0;-5.474940777E0;2.748543501E0;-7.577648163E-1
8.845006354E0;-3.980360270E0;3.217807055E0;5.865794420E-1
8.861672343E0;-2.016516447E0;2.951452255E0;2.470816135E0
8.878338333E0;1.011550203E-1;2.030881643E0;3.809175014E0
8.895004323E0;-1.686116576E0;-6.171054840E-1;4.208407879E0
8.911670312E0;-7.182605267E0;-6.854001045E0;8.242039084E-1
8.928336302E0;-5.471349239E0;-1.083017159E1;-2.261922121E0
8.945002291E0;-3.600879431E0;-2.658820915E1;-7.861959934E0
8.961668281E0;-1.831564307E-1;-5.271553421E1;-1.726758194E1
8.978334271E0;-2.802412987E0;-5.514923859E1;-1.863826180E1
8.995000260E0;-1.743577385E1;-2.333448792E1;6.530185223E0
9.011666250E0;-1.898063278E1;-7.814075947E0;1.478479385E1
9.028332239E0;-1.178725338E1;-1.010712242E1;6.394912720E0
9.044998229E0;-1.226429844E1;-9.856928825E0;-8.391677141E-1
9.061664218E0;-8.000823975E0;-9.623494148E0;-4.926070213E0
9.078330208E0;-3.722983599E0;-7.970896244E0;-3.512892485E0
9.094996198E0;-3.118447661E-1;-6.953360081E0;-1.431134105E0
9.111662187E0;2.773084164E0;-5.453991413E0;-4.129997790E-1
9.128328177E0;5.224746704E0;-4.101866245E0;-4.836287498E-1
9.144994166E0;6.339247704E0;-2.598307371E0;-1.352723986E-1
9.161660156E0;5.238513470E0;-1.031900883E0;-4.902127981E-1
9.178326146E0;3.125031710E0;1.120486379E0;-2.316988707E0
9.194992135E0;3.122637510E0;2.828150749E0;1.752555609E0
9.211658125E0;7.457938194E-1;3.991134167E0;5.724536419E0
9.228324114E0;-4.062361717E0;4.562749863E0;-3.456628799E0
9.244990104E0;-7.682993412E0;3.806780815E0;-8.917203903E0
9.261656093E0;-8.999804497E0;3.166331768E0;-2.258929253E0
9.278322083E0;-1.457410431E1;-1.815403461E0;1.137904167E1
9.294988073E0;-5.395333767E0;-5.154117584E0;2.818573952E0
9.311654062E0;-3.327940464E0;-7.210138321E0;1.015740037E0
9.328320052E0;-1.223437071E0;-1.292689323E1;-5.342660904E0
9.344986041E0;5.332485676E0;-2.972162056E1;-8.699930191E0
9.361652031E0;7.893084526E0;-4.143764496E1;-7.789535046E0
9.378318021E0;3.122039080E0;-3.607104111E1;-4.271255970E0
9.394984010E0;-6.003460884E-1;-2.482308388E1;5.327098966E-1
9.411650000E0;-4.012681961E0;-1.741482544E1;2.109890223E0
9.428315989E0;-9.280524254E0;-1.878370857E1;1.409586191E0
9.444981979E0;-1.557787323E1;-1.844732475E1;-1.665765882E0
9.461647968E0;-1.842577553E1;-1.388816547E1;-8.225878716E0
9.478313958E0;-1.776018906E1;-9.531316757E0;-9.891045570E0
9.494979948E0;-1.264138508E1;-6.637325764E0;-3.178302646E-1
9.511645937E0;-9.205106735E0;-4.426878929E0;7.377133846E0
9.528311927E0;-7.457938194E0;-3.016694069E0;1.151790619E1
9.544977916E0;-4.985326290E0;-3.184886694E0;8.990825653E0
9.561643906E0;-3.172317266E0;-3.907935619E0;2.717418909E0
9.578309896E0;-3.310582399E0;-3.556586742E0;-2.400187254E0
9.594975885E0;-3.921702385E0;-1.298255920E0;-2.023699045E0
9.611641875E0;-4.547187805E0;1.489791989E0;-3.214215636E-1
9.628307864E0;-4.358045578E0;3.035249233E0;8.577227592E-1
9.644973854E0;-3.437475204E0;3.721188068E0;1.912967205E0
9.661639843E0;-1.857301950E0;3.749918461E0;2.652176857E0
9.678305833E0;-5.297171474E-1;2.740762472E0;2.130839586E0
9.694971823E0;5.644330382E-1;1.850717902E0;1.337161660E0
9.711637812E0;-2.425326347E0;-3.142988205E0;4.076128304E-1
9.728303802E0;-3.652354717E0;-7.524975777E0;-2.547430515E0
9.744969791E0;-3.950432777E0;-1.872565079E1;-5.790376663E0
9.761635781E0;-1.675342679E0;-4.852448273E1;-1.310645866E1
9.778301771E0;-9.235633016E-1;-6.375280380E1;-2.122040749E1
9.794967760E0;-8.050502777E0;-3.481887436E1;-3.749319792E0
9.811633750E0;-1.436940002E1;-1.252466774E1;1.773983765E1
9.828299739E0;-1.009874249E1;-8.331223488E0;1.091396809E1
9.844965729E0;-7.672817707E0;-1.230140877E1;1.123479128E0
9.861631718E0;-7.871536732E0;-1.205540371E1;-4.217386246E0
9.878297708E0;-4.630385876E0;-1.029566574E1;-5.733514309E0
9.894963698E0;-1.449689150E0;-7.020996571E0;-2.454056740E0
9.911629687E0;2.093729496E0;-5.422866821E0;-5.183446407E-1
9.928295677E0;3.899555922E0;-4.410119534E0;3.776853085E-1
9.944961666E0;4.127603531E0;-2.966415882E0;4.052186310E-1
9.961627656E0;3.853467703E0;-1.829170108E0;2.723404467E-1
9.978293646E0;2.492363930E0;-8.822633028E-1;-6.464344263E-2
9.994959635E0;-4.548983276E-2;1.029506683E0;-4.884171486E-1
1.001162562E1;-1.690904975E0;3.499125719E0;1.808819413E0
1.002829161E1;-5.131372929E0;5.377377033E0;-1.298255920E0
1.004495760E1;-1.102051067E1;6.054337502E0;-9.036913872E0
1.006162359E1;-1.291492271E1;4.939836502E0;-8.425195694E0
1.007828958E1;-1.145745182E1;2.880224705E0;-2.481590033E0
1.009495557E1;-1.334468174E1;-3.204040527E0;1.174595356E1
1.011162156E1;-4.789600372E0;-1.136407852E1;3.549403906E0
1.012828755E1;2.059612036E0;-1.559882259E1;-2.362478495E0
1.014495354E1;5.748478413E0;-2.579812241E1;-6.417657852E0
1.016161953E1;6.660070419E0;-3.591781235E1;-3.660135746E0
1.017828552E1;4.951807499E0;-3.788704300E1;5.146336555E0
1.019495151E1;2.301426411E0;-2.635118294E1;1.816600561E0
1.021161750E1;5.351040959E-1;-1.896806335E1;-2.598906040E0
1.022828349E1;-3.584120035E0;-1.803911209E1;-5.345055103E0
1.024494948E1;-1.207156467E1;-1.975276184E1;-8.186373711E0
1.026161547E1;-1.662294197E1;-1.904048729E1;-1.126471901E1
1.027828146E1;-1.822586060E1;-1.439932728E1;-8.302493095E0
1.029494745E1;-1.740345192E1;-9.239224434E0;7.182605099E-3
1.031161344E1;-1.510980701E1;-6.443395138E0;1.099537086E1
1.032827943E1;-1.231098557E1;-3.572149038E0;1.412339592E1
1.034494542E1;-7.177816868E0;-1.589749932E0;9.056666374E0
1.036161141E1;-3.889979124E0;-2.203862667E0;3.803787947E0
1.037827740E1;-2.048239470E0;-2.955641985E0;-2.503736496E0
1.039494339E1;-1.504755735E0;-2.246958256E0;-4.155735493E0
1.041160938E1;-2.371456861E0;-1.017535701E-1;-1.015740037E0
1.042827536E1;-2.712032080E0;1.798644066E0;-2.124854028E-1
1.044494135E1;-2.662352324E0;3.345896959E0;-1.205480576E0
1.046160734E1;-1.917157054E0;4.687847137E0;-1.043871999E0
1.047827333E1;-6.901286244E-1;4.651933670E0;4.662707746E-1
1.049493932E1;-1.813607812E-1;3.628412724E0;7.996633649E-1
1.051160531E1;-1.586158574E-1;2.783858061E0;2.408566952E0
1.052827130E1;-3.712209702E0;-1.686715126E0;2.786252260E0
1.054493729E1;-3.475782394E0;-3.940855980E0;-8.212111592E-1
1.056160328E1;-6.309319973E0;-1.709280396E1;-5.261856556E0
1.057826927E1;-9.176975250E0;-5.418976212E1;-2.011787796E1
1.059493526E1;-1.188541603E1;-6.738540649E1;-2.713648033E1
1.061160125E1;-1.604354477E1;-3.499485016E1;-1.331176162E0
1.062826724E1;-1.663551140E1;-1.259769058E1;2.471773911E1
1.064493323E1;-6.559514046E0;-1.201589966E1;1.746450424E1
1.066159922E1;-7.748235226E0;-1.555093861E1;2.505532026E0
1.067826521E1;-5.991489887E0;-1.536359215E1;-5.421669960E0
1.069493120E1;-4.276044369E0;-1.230679512E1;-6.284181118E0
1.071159719E1;-1.486200690E0;-8.118738174E0;-3.584120035E0
1.072826318E1;2.181716204E0;-5.185841084E0;-1.592742682E0
1.074492917E1;5.184643745E0;-3.982754469E0;-1.078587890E0
1.076159516E1;6.802525520E0;-2.940079689E0;-7.625532150E-1
1.077826115E1;6.622362137E0;-1.227626920E0;-1.316810995E-1
1.079492714E1;5.090671539E0;5.770025849E-1;6.590040326E-1
1.081159312E1;2.919728994E0;1.980004787E0;7.841010392E-2
1.082825911E1;8.397662640E-1;3.757699490E0;3.094505668E-1
1.084492510E1;-5.770025849E-1;5.601234913E0;2.518101692E0
1.086159109E1;-2.023100376E0;6.681019783E0;3.389590979E0
1.087825708E1;-6.123170853E0;6.700771809E0;-4.368819714E0
1.089492307E1;-9.318233490E0;3.621230125E0;-8.806472778E0
1.091158906E1;-9.189544678E0;9.546879530E-1;-3.378218651E0
1.092825505E1;-5.515043736E0;-4.736329556E0;2.675520480E-1
1.094492104E1;-3.996521235E0;-1.127070427E1;-4.193444252E0
1.096158703E1;-2.562992811E0;-3.173155212E1;-7.244256020E0
1.097825302E1;-1.807023764E0;-4.884111786E1;-5.549160957E0
1.099491901E1;5.897517204E0;-3.286700058E1;8.604761124E0
1.101158500E1;6.851606846E0;-2.063742065E1;6.801328659E0
1.102825099E1;1.282693505E0;-1.665287018E1;8.361749649E-1
1.104491698E1;-2.288856745E0;-1.850238991E1;-5.427056789E0
1.106158297E1;-6.625354767E0;-2.044408798E1;-7.545925140E0
1.107824896E1;-1.110610294E1;-2.214756203E1;-9.062651634E0
1.109491495E1;-1.259409904E1;-2.123058319E1;-1.391869164E1
1.111158094E1;-1.461061573E1;-1.677018547E1;-1.269046593E1
1.112824693E1;-1.571194839E1;-1.227806473E1;-8.172008514E0
1.114491292E1;-1.461480618E1;-8.753800392E0;-3.202244639E-1
1.116157891E1;-1.068592072E1;-7.827842236E0;1.191115379E1
1.117824490E1;-9.100958824E0;-4.201225281E0;1.654034233E1
1.119491088E1;-8.193556786E0;-9.624691010E-1;1.204103851E1
1.121157688E1;-6.951564789E0;-3.004723191E-1;5.020640850E0
1.122824286E1;-5.325901508E0;-1.274912357E0;-3.241749048E0
1.124490885E1;-3.570353270E0;-1.368884802E0;-6.943783283E0
1.126157484E1;-3.631405354E0;6.554127336E-1;-3.516483784E0
1.127824083E1;-3.558382273E0;2.704849482E0;-1.446696401E0
1.129490682E1;-2.912546396E0;4.039018154E0;-9.050082564E-1
1.131157281E1;-1.579574585E0;4.647145271E0;-1.472434103E-1
1.132823880E1;-1.262941360E-1;4.493916512E0;9.852139950E-1
1.134490479E1;7.140706778E-1;3.680486679E0;1.529296279E0
1.136157078E1;4.818331003E-1;2.029085875E0;2.383427858E0
1.137823677E1;-2.654571056E0;-2.069188833E0;2.737171173E0
1.139490276E1;-3.946243048E0;-5.343858242E0;-1.864484549E0
1.141156875E1;-5.908291340E0;-1.425447845E1;-5.106233597E0
1.142823474E1;-9.442132950E0;-4.449803543E1;-1.591725159E1
1.144490073E1;-1.056261921E1;-6.428791046E1;-2.402282143E1
1.146156672E1;-4.771045208E0;-4.439987183E1;-1.307353878E1
1.147823271E1;-5.176264286E0;-2.105460930E1;1.349611473E1
1.149489870E1;-1.115697956E1;-9.734225273E0;2.052908325E1
1.151156469E1;-5.379172802E0;-1.331894398E1;6.688800812E0
1.152823068E1;-3.402759075E0;-1.656368637E1;-4.152144432E0
1.154489667E1;-3.552995205E0;-1.658343887E1;-9.739013672E0
1.156156266E1;-1.789665818E0;-1.299812126E1;-7.069478989E0
1.157822865E1;7.433996201E-1;-7.930194378E0;-5.698199868E-1
1.159489464E1;3.037643433E0;-5.167285919E0;2.382829189E0
1.161156063E1;4.701014996E0;-4.799177170E0;1.713649869E0
1.162822661E1;4.664503574E0;-4.386775970E0;9.911994934E-1
1.164489260E1;3.575141668E0;-2.735974073E0;1.868674397E0
1.166155859E1;2.005143881E0;-6.446388364E-1;2.618059635E0
1.167822458E1;6.368576288E-1;1.611896276E0;2.590526342E0
1.169489057E1;-5.243301988E-1;3.722385168E0;1.645415068E0
1.171155656E1;-1.275510907E0;5.761646271E0;-1.776497602E0
1.172822255E1;-1.908178806E0;6.270414352E0;-6.580463409E0
1.174488854E1;-4.884171486E0;5.363610268E0;-9.199720383E0
1.176155453E1;-5.972934723E0;3.977367640E0;-5.798756599E0
1.177822052E1;-4.519055843E0;2.655169725E0;3.046621680E-1
1.179488651E1;-1.536478996E0;-3.748122692E0;4.970961094E0
1.181155250E1;-2.627636433E0;-8.432378769E0;4.118026793E-1
1.182821849E1;-4.818331003E-1;-2.150412178E1;-1.216853023E0
1.184488448E1;2.304419130E-1;-4.384142303E1;-3.520075083E0
1.186155047E1;1.334767491E-1;-4.942171097E1;-1.729810715E0
1.187821646E1;2.422333479E0;-2.747825241E1;1.683722377E0
1.189488245E1;1.077989340E0;-1.592024422E1;8.631097078E-1
1.191154844E1;-1.564610839E0;-1.389355278E1;-3.074155092E0
1.192821443E1;-6.838438511E0;-1.604773521E1;-5.217564106E0
1.194488042E1;-1.033995819E1;-1.927930832E1;-9.080608368E0
1.196154641E1;-1.110071659E1;-1.932898903E1;-1.506611252E1
1.197821240E1;-1.404199314E1;-1.497573185E1;-1.225771427E1
1.199487839E1;-1.275630665E1;-1.104265690E1;-3.739144564E0
1.201154438E1;-1.004128170E1;-9.042900085E0;4.116829872E0
1.202821036E1;-6.342838764E0;-7.748235226E0;1.345780754E1
1.204487635E1;-6.942586422E0;-4.216787815E0;1.323035812E1
1.206154234E1;-7.155670166E0;-2.194884300E0;7.950545311E0
1.207820833E1;-6.553528786E0;-1.974019289E0;1.951274395E0
1.209487432E1;-6.358999729E0;-2.050035238E0;-5.181052685E0
1.211154031E1;-6.281188011E0;-1.783680320E-1;-5.173870087E0
1.212820630E1;-5.787384033E0;2.400187254E0;-1.435323954E0
1.214487229E1;-5.139153957E0;4.465784550E0;6.045359373E-2
1.216153828E1;-3.904942989E0;5.755062103E0;4.219780564E-1
1.217820427E1;-2.045246840E0;5.814318657E0;1.183932781E0
1.219487026E1;-6.218938828E-1;4.899135113E0;1.102529883E0
1.221153625E1;6.847416759E-1;3.123834610E0;1.939901948E0
1.222820224E1;-1.163581967E0;-1.605910778E0;3.627814054E0
1.224486823E1;-2.956240654E0;-5.890334606E0;-2.790441990E0
1.226153422E1;-3.286041737E0;-1.156818390E1;-5.519832134E0
1.227820021E1;-5.143942356E0;-3.345298386E1;-9.035119057E0
1.229486620E1;-6.247669220E0;-6.036081696E1;-1.730289650E1
1.231153219E1;-7.032369137E0;-5.693711090E1;-2.303162193E1
1.232819818E1;-7.001244545E0;-3.008853149E1;-1.465849996E0
1.234486417E1;-1.342009926E1;-1.330038929E1;2.397493744E1
1.236153016E1;-8.458714485E0;-1.118930149E1;1.573948193E1
1.237819615E1;-4.993107796E0;-1.441548824E1;2.219424963E0
1.239486214E1;-4.829703331E0;-1.398333549E1;-4.806359768E0
1.241152812E1;-2.844311714E0;-1.147002220E1;-4.445434093E0
1.242819411E1;-1.024119735E0;-7.642292023E0;-1.787870169E0
1.244486010E1;1.619078875E0;-4.651933670E0;-3.423708379E-1
1.246152609E1;4.291606426E0;-2.704250813E0;-2.118868530E-1
1.247819208E1;6.412869453E0;-1.054047346E0;2.753331885E-2
1.249485807E1;7.093420982E0;1.789665818E-1;1.056441545E0
1.251152406E1;6.116586685E0;9.965864420E-1;1.893214941E0
1.252819005E1;3.768473387E0;2.075772762E0;8.098387122E-1
1.254485604E1;1.461061597E0;3.430292368E0;7.960720360E-2
1.256152203E1;-5.776011348E-1;5.300164223E0;-1.711854190E-1
1.257818802E1;-3.399766445E0;6.431424141E0;-2.184110403E0
1.259485401E1;-7.079654217E0;5.899911404E0;-7.538742542E0
1.261152000E1;-8.897452354E0;4.503493309E0;-4.569334030E0
1.262818599E1;-7.655459881E0;-1.160589218E0;4.854842663E0
1.264485198E1;-1.332971811E0;-7.854777336E0;-4.662707746E-1
1.266151797E1;2.537853718E-1;-1.347636318E1;-6.947973251E0
1.267818396E1;1.964442492E0;-3.266289520E1;-6.460154533E0
1.269484995E1;2.020706177E0;-4.850413132E1;-4.135983288E-1
1.271151594E1;2.464232206E0;-3.980839157E1;3.833715439E0
1.272818193E1;-2.023699045E0;-2.204281616E1;2.734178305E0
1.274484792E1;-4.183269024E0;-1.558505630E1;5.380968451E-1
1.276151391E1;-4.342483521E0;-1.494759941E1;-4.941632271E0
1.277817990E1;-5.493495941E0;-1.635718536E1;-7.817068577E0
1.279484588E1;-5.889736176E0;-1.836831474E1;-1.307353878E1
1.281151188E1;-6.364386559E0;-1.829648972E1;-1.455734444E1
1.282817786E1;-9.247604370E0;-1.554076290E1;-1.062845993E1
1.284484385E1;-1.056321812E1;-1.263599777E1;-4.268861771E0
1.286150984E1;-1.158673954E1;-9.181164742E0;7.852981687E-1
1.287817583E1;-1.231697083E1;-6.982090473E0;1.203206062E1
1.289484182E1;-1.080144119E1;-2.777273893E0;1.546055794E1
1.291150781E1;-8.212710381E0;-1.580173075E-1;9.952097893E0
1.292817380E1;-7.179013729E0;5.297171474E-1;3.633799553E0
1.294483979E1;-6.992266178E0;7.254431248E-1;-3.934272051E0
1.296150578E1;-6.268020153E0;2.032078743E0;-7.387309551E0
1.297817177E1;-5.089474201E0;3.630806923E0;-3.258508444E0
1.299483776E1;-3.541622877E0;4.524442673E0;4.034229815E-1
1.301150375E1;-2.335543871E0;5.032611847E0;1.716642618E0
1.302816974E1;-1.770512104E0;4.685452938E0;1.127070427E0
1.304483573E1;-2.093729496E0;2.910152197E0;1.017535757E-2
1.306150172E1;-1.984793186E0;-1.651999205E-1;3.716998100E-1
1.307816771E1;-3.684676409E0;-3.587112665E0;7.116764784E-1
1.309483370E1;-4.591480255E0;-7.679401875E0;-2.957437754E0
1.311149969E1;-6.032191277E0;-1.704791260E1;-6.638522625E0
1.312816568E1;-6.883329868E0;-4.892192078E1;-1.494999409E1
1.314483167E1;-7.220912457E0;-6.496546936E1;-2.402102470E1
1.316149766E1;-7.177816868E0;-4.308006668E1;-9.813833237E0
1.317816365E1;-9.279925346E0;-2.028367615E1;1.769793892E1
1.319482964E1;-1.129344940E1;-9.861717224E0;1.974617767E1
1.321149563E1;-4.288613796E0;-1.457170963E1;5.731120110E0
1.322816161E1;-5.657498837E0;-1.489552593E1;-2.375646591E0
1.324482760E1;-5.045780182E0;-1.308730507E1;-4.859631062E0
1.326149359E1;-3.181295395E0;-9.562441826E0;-3.390189648E0
1.327815958E1;-3.172317147E-1;-6.632537365E0;-2.501940727E0
1.329482557E1;2.453458309E0;-4.423886299E0;-1.993172884E0
1.331149156E1;5.020640850E0;-2.747945070E0;-1.562815189E0
1.332815755E1;6.014833450E0;-9.732429981E-1;-1.328781992E-1
1.334482354E1;5.596446514E0;5.596446395E-1;8.792705536E-1
1.336148953E1;4.265270233E0;1.908777356E0;7.817068696E-1
1.337815552E1;2.516904593E0;3.799597979E0;1.641823769E0
1.339482151E1;1.113902330E0;5.807734966E0;2.532466888E0
1.341148750E1;6.326677799E-1;7.317278862E0;4.203021049E0
1.342815349E1;-2.574964046E0;6.657676220E0;-4.164115429E0
1.344481948E1;-7.776367188E0;5.114613533E0;-9.922768593E0
1.346148547E1;-1.079485703E1;2.639607430E0;-4.959589005E0
1.347815146E1;-6.681618214E0;-4.796782970E0;1.795651275E-3
1.349481745E1;-3.916913986E0;-9.857526779E0;-1.883039594E0
1.351148344E1;1.071405292E0;-2.288617325E1;-3.626018524E0
1.352814943E1;5.835866451E0;-4.168724060E1;-1.312621117E0
1.354481542E1;6.555922985E0;-4.899254990E1;4.817133904E0
1.356148141E1;3.389590979E0;-3.372951508E1;3.098097086E0
1.357814740E1;-2.820369720E0;-2.101450729E1;-1.628057212E-1
1.359481338E1;-7.663240910E0;-1.803193092E1;-6.095637321E0
1.361147938E1;-9.632472038E0;-1.843834496E1;-1.086369038E1
1.362814536E1;-1.132876396E1;-1.909974480E1;-1.397854710E1
1.364481135E1;-1.197639561E1;-1.684799767E1;-1.031062984E1
1.366147734E1;-1.154663658E1;-1.386242771E1;-5.932233334E0
1.367814333E1;-1.026214695E1;-1.004786587E1;-1.078587890E0
1.369480932E1;-9.073426247E0;-7.028179169E0;4.597465992E0
1.371147531E1;-8.161234856E0;-5.118803024E0;9.266159058E0
1.372814130E1;-7.910442352E0;-3.106476784E0;1.026274586E1
1.374480729E1;-7.378331184E0;-1.056441545E0;6.974309444E0
1.376147328E1;-8.114547729E0;6.362590790E-1;1.898601890E0
1.377813927E1;-9.003395081E0;1.748365760E0;-3.382408381E0
1.379480526E1;-8.079832077E0;2.758718967E0;-3.956418276E0
1.381147125E1;-6.439804077E0;3.717596769E0;-1.917755604E0
1.382813724E1;-4.938041210E0;4.598662853E0;-8.852560520E-1
1.384480323E1;-3.353677988E0;5.704783916E0;5.907692909E-1
1.386146922E1;-1.306635618E0;5.407903194E0;2.907159328E0
1.387813521E1;-7.661445141E-1;3.393780947E0;2.880224705E0
1.389480120E1;-8.649053574E-1;5.799953341E-1;2.643198729E0
1.391146719E1;-3.926490784E0;-5.008669853E0;3.543418407E0
1.392813318E1;-4.613028049E0;-1.003290176E1;-2.684498549E0
1.394479917E1;-6.573280811E0;-2.712391090E1;-7.799111843E0
1.396146516E1;-5.352836609E0;-6.339846039E1;-1.800858688E1
1.397813115E1;-6.465541840E0;-6.165548325E1;-2.631467056E1
1.399479714E1;-3.705625772E0;-3.442921829E1;-8.766369820E0
1.401146312E1;-2.536058187E0;-1.534384060E1;9.895833969E0
1.402812911E1;-9.862315178E0;-7.250839710E0;2.081937981E1
1.404479510E1;-3.359663486E0;-1.312261963E1;7.267599106E0
1.406146109E1;-3.108272314E0;-1.460822201E1;-1.159990668E0
1.407812708E1;-2.978386879E0;-1.193928528E1;-4.641160011E0
1.409479307E1;-1.006163239E0;-8.546701431E0;-3.737947464E0
1.411145906E1;1.310825467E0;-5.647922039E0;-2.164956808E0
1.412812505E1;3.767276287E0;-4.018667698E0;-1.538873196E0
1.414479104E1;5.760449409E0;-3.107075214E0;-3.663128614E-1
1.416145703E1;6.266224384E0;-2.727594376E0;1.063025594E0
1.417812302E1;5.208585739E0;-1.728015065E0;2.927510023E0
1.419478901E1;3.144783974E0;1.394622475E-1;3.955819845E0
1.421145500E1;7.613561153E-1;2.683900118E0;4.444835663E0
1.422812099E1;-1.346738458E0;4.796782970E0;3.199850559E0
1.424478698E1;-4.135385036E0;5.515043736E0;-2.330156803E0
1.426145297E1;-9.548076630E0;5.564124584E0;-1.111149025E1
1.427811896E1;-1.113722801E1;4.348468781E0;-8.856152534E0
1.429478495E1;-6.657077789E0;1.559822440E0;-1.830965757E0
1.431145094E1;-5.066130638E0;-3.866635799E0;1.748365760E0
1.432811693E1;-3.152565002E0;-1.217631149E1;1.089361757E-1
1.434478292E1;-1.762132406E0;-2.850716019E1;-2.522890091E0
1.436144891E1;-4.686649740E-1;-5.057571411E1;-4.311957359E0
1.437811490E1;7.286154270E0;-4.189972687E1;4.084507942E0
1.439478089E1;4.997896194E0;-2.238758087E1;4.653729439E0
1.441144688E1;1.408987641E0;-1.490989113E1;1.170764685E0
1.442811286E1;-1.122880578E0;-1.530553246E1;-5.774814606E0
1.444477885E1;-4.628590584E0;-1.887349129E1;-1.134971333E1
1.446144484E1;-8.596980095E0;-2.154661751E1;-1.381215000E1
1.447811083E1;-9.397840500E0;-1.866160583E1;-1.334228706E1
1.449477682E1;-1.037647057E1;-1.334228706E1;-8.284536362E0
1.451144281E1;-1.130542088E1;-8.835801125E0;-4.989516258E0
1.452810880E1;-1.142991924E1;-8.213907242E0;4.284423828E0
1.454477479E1;-8.479064941E0;-7.117362976E0;1.255698967E1
1.456144078E1;-7.660248280E0;-4.099472046E0;1.193090534E1
1.457810677E1;-8.742427826E0;-2.580350876E0;6.310517311E0
1.459477276E1;-1.015081692E1;-1.838746905E0;1.760336757E0
1.461143875E1;-1.087027454E1;-7.374141216E-1;-2.196680069E0
1.462810474E1;-9.872490883E0;-2.232593149E-1;-3.661931515E0
1.464477073E1;-7.871536732E0;9.540894032E-1;-2.968810081E0
1.466143672E1;-4.910507679E0;2.089539528E0;-1.364694953E0
1.467810271E1;-1.713051319E0;3.239354849E0;-1.113303825E-1
1.469476870E1;3.830722570E-1;3.876811028E0;1.532887697E0
1.471143469E1;1.495777488E0;3.502717018E0;2.284068346E0
1.472810068E1;2.084751129E0;2.767098665E0;1.876455545E0
1.474476667E1;6.224924326E-1;8.858546615E-2;2.229600430E0
1.476143266E1;-1.865681648E0;-4.319738388E0;-3.408744574E0
1.477809865E1;-2.661753654E0;-9.804255486E0;-6.750451565E0
1.479476464E1;-2.652176857E0;-3.698323441E1;-1.323394966E1
1.481143063E1;-3.330933094E0;-6.509894562E1;-2.149394608E1
1.482809661E1;-1.890820742E0;-5.578010941E1;-1.844852066E1
1.484476260E1;-1.084573364E1;-2.483505440E1;2.661155224E0
1.486142859E1;-1.881363678E1;-9.372102737E0;2.342726326E1
1.487809458E1;-1.523011589E1;-7.135918140E0;1.388876438E1
1.489476057E1;-7.529165745E0;-1.211525917E1;2.150591612E0
1.491142656E1;-4.893748283E0;-1.321120453E1;-3.911526918E0
1.492809255E1;-1.828571558E0;-1.212603283E1;-6.849811077E0
1.494475854E1;2.346317619E-1;-8.299500465E0;-5.733514309E0
1.496142453E1;2.394201756E0;-4.749497414E0;-4.082712650E0
1.497809052E1;4.546588898E0;-2.404376984E0;-2.480392933E0
1.499475651E1;6.037578106E0;-3.675099611E-1;-7.870938182E-1
1.501142250E1;6.618770599E0;7.787141204E-1;-3.543418646E-1
1.502808849E1;6.046556473E0;2.777872562E0;1.764526606E0
1.504475448E1;5.353435040E0;4.507683277E0;2.361281395E0
1.506142047E1;2.674323320E0;6.081871033E0;1.305438519E0
1.507808646E1;-1.821388960E0;6.608595371E0;-4.037821293E0
1.509475245E1;-7.138910770E0;6.601412773E0;-7.368754387E0
1.511141844E1;-1.144488239E1;6.108805656E0;-3.276464939E0
1.512808443E1;-1.774522400E1;1.780687571E0;1.366490650E1
1.514475042E1;-3.757699490E0;-9.382277489E0;4.456806660E0
1.516141641E1;9.678560495E-1;-1.292629528E1;-7.373542786E0
1.517808240E1;4.933252811E0;-2.665764046E1;-8.230068207E0
1.519474838E1;8.204929352E0;-4.025969696E1;-3.417124271E0
1.521141438E1;7.383718014E0;-4.535515976E1;2.120065689E0
1.522808036E1;2.752733469E0;-3.424366760E1;-1.358709484E-1
1.524474635E1;-1.739387512E0;-2.306035233E1;-1.155800819E0
1.526141234E1;-7.478289127E0;-1.866819000E1;-3.110068083E0
1.527807833E1;-1.267969227E1;-1.607766342E1;-6.897096634E0
1.529474432E1;-1.502481270E1;-1.361283207E1;-7.798513412E0
1.531141031E1;-1.470937634E1;-1.040579891E1;-6.580463409E0
1.532807630E1;-1.179922485E1;-7.946953773E0;-3.031657934E0
1.534474229E1;-6.816890717E0;-6.782175064E0;3.223792553E0
1.536140828E1;-2.395997286E0;-6.386533260E0;8.747216225E0
1.537807427E1;-2.436698675E0;-5.186439514E0;8.172607422E0
1.539474026E1;-3.869029999E0;-3.491943121E0;2.831143618E0
1.541140625E1;-4.785410881E0;-1.678335428E0;-3.062782526E0
1.542807224E1;-5.120598793E0;-9.457096457E-2;-4.951209068E0
1.544473823E1;-5.645527840E0;1.628655672E0;-2.629431963E0
1.546140422E1;-5.642534733E0;3.241150618E0;-4.040215313E-1
1.547807021E1;-5.790975571E0;4.606443882E0;1.408987641E0
1.549473620E1;-6.548740387E0;5.270834923E0;3.166930199E0
1.551140219E1;-6.915651798E0;6.069301128E0;3.640383720E0
1.552806818E1;-6.038775444E0;4.839280128E0;3.821744442E0
1.554473417E1;-4.783615112E0;8.822633028E-1;2.658162355E0
1.556140016E1;-6.751050472E0;-5.252878666E0;9.947907925E-1
1.557806615E1;-5.270834923E0;-1.283531570E1;-5.057152748E0
1.559473214E1;-4.381389141E0;-2.957617188E1;-1.018912411E1
1.561139813E1;-1.489193439E0;-5.908351135E1;-1.269465637E1
1.562806411E1;8.996811867E0;-6.664320374E1;-1.998739433E1
1.564473010E1;8.232462883E0;-3.663607407E1;1.467047095E0
1.566139609E1;-2.401982784E0;-1.545636749E1;1.026933002E1
1.567806208E1;-1.197100830E1;-7.290344238E0;9.695320129E0
1.569472807E1;-1.119588566E1;-1.076373196E1;1.752555609E0
1.571139406E1;-9.657012939E0;-1.341052246E1;-3.939060450E0
1.572806005E1;-5.278017521E0;-1.444661331E1;-6.014833450E0
1.574472604E1;-1.956062794E0;-1.048241329E1;-3.368641853E0
1.576139203E1;1.303044319E0;-6.323685169E0;-1.142034173E0
1.577805802E1;4.229955673E0;-3.176506996E0;2.352303118E-1
1.579472401E1;6.438606739E0;-1.384447098E0;6.392518282E-1
1.581139000E1;7.245452881E0;-2.035071515E-2;1.042076349E0
1.582805599E1;6.190208435E0;1.364694953E0;2.381033659E0
1.584472198E1;4.266467571E0;2.421136379E0;3.845686436E0
1.586138797E1;2.394201756E0;3.813963413E0;5.291784286E0
1.587805396E1;-1.538873196E0;5.563526154E0;4.135983467E0
1.589471995E1;-6.892308235E0;4.498704910E0;-5.491700172E0
1.591138594E1;-1.117074680E1;2.900575399E0;-9.894038200E0
1.592805193E1;-9.705494881E0;7.679402232E-1;-5.361814499E0
1.594471792E1;-4.006097794E0;-2.155380011E0;-8.613140583E-1
1.596138391E1;-2.929904222E0;-5.980117321E0;2.217030764E0
1.597804990E1;-1.432331204E0;-1.310885239E1;-5.650315881E-1
1.599471589E1;-1.256955862E-1;-3.305434799E1;-5.913678169E0
1.601138188E1;7.691373229E-1;-4.585674286E1;-5.663484097E0
1.602804786E1;6.180631638E0;-2.876513672E1;3.400364876E0
1.604471385E1;5.983708382E0;-1.882201576E1;4.453215122E0
1.606137984E1;2.909553528E0;-1.467885017E1;1.545457244E0
1.607804583E1;-1.194706678E0;-1.570237160E1;-6.187215805E0
1.609471182E1;-7.559093475E0;-1.951274300E1;-1.231457615E1
1.611137781E1;-1.269944477E1;-2.137782669E1;-1.422694492E1
1.612804380E1;-1.297477722E1;-2.006580353E1;-1.096185207E1
1.614470979E1;-1.218708515E1;-1.448910999E1;-4.636970043E0
1.616137578E1;-1.232116032E1;-9.677961349E0;1.334168911E0
1.617804177E1;-1.146343803E1;-7.818265438E0;1.271680260E1
1.619470776E1;-9.458892822E0;-4.328716755E0;1.519958973E1
1.621137375E1;-8.403648376E0;-1.772906303E0;8.331821442E0
1.622803974E1;-7.380725384E0;-1.279102206E0;2.298433632E-1
1.624470573E1;-6.104615688E0;-1.735796213E0;-6.009446144E0
1.626137172E1;-5.306747913E0;-2.968810201E-1;-5.159504890E0
1.627803771E1;-4.910507679E0;2.039859772E0;-1.258152962E0
1.629470370E1;-3.903745890E0;3.617638826E0;8.583213091E-1
1.631136969E1;-3.041234732E0;4.320336819E0;9.959878922E-1
1.632803568E1;-2.295440912E0;4.587889194E0;5.799953341E-1
1.634470167E1;-1.328183413E0;4.381389141E0;-2.663549483E-1
1.636136766E1;-9.121908545E-1;3.333327293E0;-3.387795389E-1
1.637803365E1;-2.379237890E0;9.097966552E-2;1.267131209E0
1.639469964E1;-4.381389141E0;-5.482123375E0;-3.770867735E-2
1.641136563E1;-4.345476151E0;-1.113363647E1;-3.803189516E0
1.642803161E1;-5.312135220E0;-2.975753212E1;-1.017356110E1
1.644469760E1;-3.348889589E0;-6.212414551E1;-1.976174164E1
1.646136359E1;-2.053027868E0;-5.715318680E1;-2.472073174E1
1.647802958E1;-4.443638325E0;-2.871605492E1;-5.073912144E0
1.649469557E1;-1.338179207E1;-1.331894398E1;1.805407715E1
1.651136156E1;-1.229242992E1;-1.133355236E1;1.478599072E1
1.652802755E1;-4.304774761E0;-1.846827316E1;2.519298792E0
1.654469354E1;-4.225167274E0;-1.834078217E1;-4.623203278E0
1.656135953E1;-2.720411777E0;-1.455973911E1;-4.930259705E0
1.657802552E1;-9.690531492E-1;-9.298480988E0;-1.265335560E0
1.659469151E1;1.826775908E0;-5.773617268E0;-2.334346622E-2
1.661135750E1;4.328118324E0;-3.771466255E0;-2.567781210E-1
1.662802349E1;6.160281181E0;-2.376245260E0;-4.525041282E-1
1.664468948E1;6.889914036E0;-5.931634903E-1;9.085995555E-1
1.666135547E1;6.469731331E0;1.316810995E-1;6.404489279E-1
1.667802146E1;5.032611847E0;1.388038397E0;-2.879027426E-1
1.669468745E1;3.035249233E0;4.507683277E0;-1.329979062E0
1.671135344E1;2.109890223E0;6.627150536E0;-2.919728994E0
1.672801943E1;1.286284804E0;7.033565998E0;-8.140285611E-1
1.674468542E1;-2.896984100E0;6.091447830E0;-3.519476414E0
1.676135141E1;-5.926247597E0;4.914697647E0;-5.948394299E0
1.677801740E1;-7.715314865E0;4.055777550E0;-4.437054157E0
1.679468339E1;-1.005863953E1;1.350329757E0;1.704671621E0
1.681134938E1;-7.207744122E0;-6.412869453E0;-1.023521185E0
1.682801536E1;-9.358934402E0;-1.905245781E1;-9.285312653E0
1.684468135E1;-8.510788918E0;-4.557183456E1;-9.405022621E0
1.686134734E1;3.307589531E0;-4.930499268E1;5.207388878E0
1.687801333E1;8.227674484E0;-2.917514420E1;1.103607273E1
1.689467932E1;3.385999680E0;-1.781166267E1;6.490082264E0
1.691134531E1;1.556231081E-1;-1.567603588E1;-6.458359361E-1
1.692801130E1;-1.608903527E0;-1.685518074E1;-1.081879902E1
1.694467729E1;-5.411494255E0;-1.700002861E1;-1.543362236E1
1.696134328E1;-4.915296078E0;-1.842517853E1;-1.574127769E1
1.697800927E1;-3.897161722E0;-1.792897987E1;-1.073739624E1
1.699467526E1;-6.709151745E0;-1.519599819E1;-7.573458672E0
1.701134125E1;-1.017595577E1;-1.257195282E1;-6.740276337E0
1.702800724E1;-1.379598904E1;-1.027651215E1;1.883638144E0
1.704467323E1;-1.089601231E1;-7.495646954E0;1.221222401E1
1.706133922E1;-6.985682011E0;-3.825335741E0;1.376785660E1
1.707800521E1;-6.117784023E0;-1.937507749E0;7.198167324E0
1.709467120E1;-5.925649166E0;-1.966238141E0;-1.324592113E0
1.711133719E1;-6.293159008E0;-1.565209389E0;-6.087856293E0
1.712800318E1;-6.042964935E0;-4.141969085E-1;-3.757101059E0
1.714466917E1;-5.067327976E0;1.748365760E0;-1.526303530E0
1.716133516E1;-4.707599163E0;3.700238705E0;-1.388038397E0
1.717800115E1;-4.217386246E0;4.787805080E0;-1.492784739E0
1.719466714E1;-2.595913172E0;4.860827923E0;-4.848258495E-1
1.721133312E1;-5.841852427E-1;4.197634220E0;7.074866295E-1
1.722799911E1;9.463081956E-1;3.385401249E0;1.538274646E0
1.724466510E1;-2.801215947E-1;1.957858443E0;4.516661644E0
1.726133109E1;-4.298190594E0;-4.837484360E0;1.440112352E0
1.727799708E1;-5.308543682E0;-1.182077217E1;-3.112462282E0
1.729466307E1;-6.831255913E0;-4.198292542E1;-1.276588345E1
1.731132906E1;-4.944026470E0;-7.125682831E1;-2.493441391E1
1.732799505E1;-4.911705017E0;-4.996040726E1;-1.738848877E1
1.734466104E1;-9.354146004E0;-2.073857498E1;9.294290543E0
1.736132703E1;-1.307234097E1;-1.028489208E1;2.243367004E1
1.737799302E1;-4.817133904E0;-1.395939255E1;9.455301285E0
1.739465901E1;-4.505289078E0;-1.678933907E1;-2.251148224E0
1.741132500E1;-3.263895512E0;-1.497513294E1;-6.290166378E0
1.742799099E1;-1.606509328E0;-1.070447540E1;-4.647744179E0
1.744465698E1;7.128735781E-1;-6.630741596E0;-2.558204412E0
1.746132297E1;3.052607059E0;-3.956418276E0;-1.221042871E0
1.747798896E1;5.425261021E0;-2.486977100E0;5.506663769E-2
1.749465495E1;6.068702698E0;-1.482010841E0;4.950011969E-1
1.751132094E1;5.410297394E0;-2.238578647E-1;1.410783410E0
1.752798693E1;4.156333923E0;1.386242747E0;2.218826532E0
1.754465292E1;1.771709204E0;3.019088268E0;1.618480325E0
1.756131891E1;-6.440402865E-1;4.958391666E0;1.223437071E0
1.757798490E1;-3.783437252E0;7.117362976E0;-4.016273320E-1
1.759465088E1;-1.058476543E1;8.006809235E0;-8.316858292E0
1.761131688E1;-1.230320358E1;5.864596844E0;-8.856750488E0
1.762798286E1;-9.578602791E0;3.229778051E0;-3.833117008E0
1.764464885E1;-6.726509571E0;-3.495534360E-1;4.250306606E0
1.766131484E1;-7.505822182E-1;-8.604162216E0;2.424129248E0
1.767798083E1;8.619126081E-1;-1.092354488E1;-5.178059578E0
1.769464682E1;2.489969730E-1;-2.911768341E1;-3.663128614E0
1.771131281E1;2.394201607E-2;-4.822760010E1;-5.510853767E0
1.772797880E1;2.954444885E0;-5.041530228E1;-3.279457808E0
1.774464479E1;5.440224648E0;-2.501701355E1;3.177704096E0
1.776131078E1;3.267486811E0;-1.565867805E1;2.305017710E0
1.777797677E1;5.147533417E-1;-1.276588345E1;-7.858967185E-1
1.779464276E1;-4.605845451E0;-1.530673027E1;-6.803123951E0
1.781130875E1;-8.307879448E0;-1.943672752E1;-1.340214252E1
1.782797474E1;-1.036150646E1;-1.875797272E1;-1.633384323E1
1.784464073E1;-1.123598862E1;-1.482729149E1;-9.965266228E0
1.786130672E1;-1.158494377E1;-1.052251625E1;-5.015254021E0
1.787797271E1;-1.113543224E1;-8.672396660E0;6.279392719E0
1.789463870E1;-9.703699112E0;-5.793968201E0;1.583644676E1
1.791130469E1;-8.373720169E0;-2.261922121E0;1.314117432E1
1.792797068E1;-6.473322868E0;-1.219845772E0;4.967370033E0
1.794463667E1;-5.408501625E0;-1.343745708E0;-4.976348400E0
1.796130266E1;-4.806958675E0;-9.085995555E-1;-7.157465935E0
1.797796865E1;-5.244498730E0;8.116343617E-1;-3.210624456E0
1.799463464E1;-5.227140903E0;3.286041737E0;-8.080430627E-1
1.801130062E1;-4.653729439E0;4.971560001E0;-4.704606235E-1
1.802796661E1;-3.590105534E0;5.611410141E0;1.358709484E-1
1.804463260E1;-1.377264500E0;5.269039154E0;1.416768909E0
1.806129859E1;1.765723825E-1;3.937264681E0;1.968632340E0
1.807796458E1;3.687070608E-1;2.051830769E0;2.315192938E0
1.809463057E1;-3.353079557E0;-3.189076662E0;3.500322819E0
1.811129656E1;-4.347271919E0;-8.861538887E0;-3.124433279E0
1.812796255E1;-5.530605793E0;-1.838926506E1;-8.204929352E0
1.814462854E1;-6.469132900E0;-4.742554474E1;-1.222838497E1
1.816129453E1;-2.153584480E0;-6.697000885E1;-2.173037338E1
1.817796052E1;1.165377736E0;-4.430290604E1;-4.598662853E0
1.819462651E1;-5.841852188E0;-1.802534676E1;6.878541470E0
1.821129250E1;-9.390657425E0;-9.739612579E0;1.162325096E1
1.822795849E1;-6.323086739E0;-1.309867764E1;4.009090900E0
1.824462448E1;-5.126584530E0;-1.548509789E1;-1.832162857E0
1.826129047E1;-4.037222385E0;-1.504875469E1;-4.630984783E0
1.827795646E1;-1.634641171E0;-1.177109241E1;-3.964199543E0
1.829462245E1;5.279214978E-1;-7.387309551E0;-1.642422318E0
1.831128844E1;2.529474020E0;-4.395155907E0;-2.489969730E-1
1.832795443E1;4.129997730E0;-2.460042238E0;-4.668693244E-2
1.834462042E1;5.427056789E0;-1.352125406E0;1.753752679E-1
1.836128641E1;6.010045052E0;-3.411737382E-1;1.755548358E0
1.837795240E1;5.492897034E0;7.236474752E-1;2.868852139E0
1.839461838E1;3.749319792E0;1.504755735E0;1.681328177E0
1.841128438E1;1.504755735E0;3.125031710E0;-6.470330358E-1
1.842795036E1;-1.127668977E0;5.591059685E0;-2.940079689E0
1.844461635E1;-5.071517944E0;7.346607685E0;-7.069478989E0
1.846128234E1;-9.036913872E0;6.191405773E0;-9.153033257E0
1.847794833E1;-8.623914719E0;3.976170540E0;-4.377199173E0
1.849461432E1;-7.029376030E0;5.506663769E-2;5.054758549E0
1.851128031E1;-2.932298422E0;-8.218097687E0;4.504091740E0
1.852794630E1;-1.783680320E-1;-1.323215389E1;-2.709637880E0
1.854461229E1;2.367865562E0;-3.243784332E1;-1.888426542E0
1.856127828E1;5.914276600E0;-5.678028870E1;-1.880046844E0
1.857794427E1;3.774458885E0;-4.824795151E1;-4.525041282E-1
1.859461026E1;1.084573388E0;-2.171062088E1;9.151836038E-1
1.861127625E1;-4.644751251E-1;-1.525705051E1;-1.063025594E0
1.862794224E1;-4.520851135E0;-1.453699398E1;-5.018246651E0
1.864460823E1;-1.116715527E1;-1.684201241E1;-1.025855541E1
1.866127422E1;-1.535760689E1;-1.704611778E1;-1.571673679E1
1.867794021E1;-1.716403198E1;-1.319145298E1;-1.197699356E1
1.869460620E1;-1.415571785E1;-9.186552048E0;-3.913322687E0
1.871127219E1;-1.006462574E1;-7.864354134E0;3.961206675E0
1.872793818E1;-6.457760334E0;-7.798513412E0;1.461121464E1
1.874460417E1;-6.113594055E0;-4.147954464E0;1.441249561E1
1.876127016E1;-6.080673695E0;-1.938704848E0;7.238270283E0
1.877793615E1;-5.899911404E0;-2.045845270E0;-1.011550203E-1
1.879460214E1;-5.114613533E0;-2.865260839E0;-6.162675381E0
1.881126812E1;-4.836287498E0;-1.882441044E0;-5.984307289E0
1.882793411E1;-6.115389824E0;1.001973391E0;-2.337938070E0
1.884460010E1;-6.325480938E0;3.289034605E0;-1.004367590E0
1.886126609E1;-4.748300552E0;4.920084476E0;1.807622313E-1
1.887793208E1;-2.166752577E0;5.150526524E0;1.302445769E0
1.889459807E1;-4.926069975E-1;4.412513733E0;5.554547906E-1
1.891126406E1;-1.442506462E-1;2.856282711E0;-4.764461517E-1
1.892793005E1;-3.591302633E-1;1.032499433E0;1.479018092E0
1.894459604E1;-3.417124271E0;-5.509057999E0;9.696517140E-2
1.896126203E1;-3.743932962E0;-1.016458321E1;-2.448071241E0
1.897792802E1;-7.395090580E0;-2.638410187E1;-4.826710701E0
1.899459401E1;-7.345410824E0;-5.797020721E1;-1.606868553E1
1.901126000E1;-2.166752577E0;-6.372227859E1;-2.088222694E1
1.902792599E1;-6.631938815E-1;-3.242108154E1;-3.150769472E0
1.904459198E1;-9.977835417E-1;-1.556171227E1;1.080383492E1
1.906125797E1;-3.085527420E0;-8.871714592E0;1.355118179E1
1.907792396E1;-1.559223890E0;-1.281795692E1;3.150170803E0
1.909458995E1;-2.698265314E0;-1.414195061E1;-3.391386747E0
1.911125594E1;-3.781043053E0;-1.150653362E1;-4.007893562E0
1.912792193E1;-2.172738016E-1;-8.089408875E0;-1.033097982E0
1.914458792E1;1.701080322E0;-5.084685802E0;9.600749016E-1
1.916125391E1;2.579153776E0;-3.791218281E0;4.950011969E-1
1.917791990E1;3.103483915E0;-2.889801502E0;-1.418564469E-1
1.919458589E1;3.384802580E0;-1.344344258E0;1.033097982E0
1.921125188E1;3.130418777E0;3.238157928E-1;2.919130325E0
1.922791786E1;1.611896276E0;2.145803213E0;3.399766445E0
1.924458385E1;-5.608417392E-1;4.281431198E0;1.714248419E0
1.926124984E1;-3.576338768E0;5.642534733E0;-2.897582531E0
1.927791583E1;-7.430405140E0;5.925649166E0;-9.625288963E0
1.929458182E1;-8.914810181E0;4.979341030E0;-9.163806915E0
1.931124781E1;-5.308543682E0;2.515707493E0;-3.315969467E0
1.932791380E1;-3.402160645E0;-8.684966564E-1;2.717418909E0
1.934457979E1;-1.440710902E0;-7.799710751E0;1.371877551E0
1.936124578E1;-3.830722570E-1;-1.364455509E1;-7.900865674E-1
1.937791177E1;5.686228871E-1;-3.312857056E1;-3.497330189E0
1.939457776E1;3.115454912E0;-5.236119080E1;-2.899976730E0
1.941124375E1;6.441599846E0;-3.869808197E1;1.225831270E0
1.942790974E1;2.559401512E0;-1.980543518E1;2.454056740E0
1.944457573E1;3.058592677E-1;-1.461121464E1;1.227028370E-1
1.946124172E1;-3.178302765E0;-1.616983986E1;-5.550358295E0
1.947790771E1;-9.859322548E0;-1.995806503E1;-1.217631149E1
1.949457370E1;-1.486799240E1;-2.028248024E1;-1.633085060E1
1.951123969E1;-1.475666237E1;-1.499069500E1;-9.043498039E0
1.952790568E1;-1.243727970E1;-9.508571625E0;-3.357269287E0
1.954457167E1;-9.549872398E0;-6.882731438E0;3.594893932E0
1.956123766E1;-5.808333397E0;-6.528987885E0;1.402882481E1
1.957790365E1;-5.514444828E0;-3.722385168E0;1.336263847E1
1.959456964E1;-5.154117584E0;-2.027290344E0;6.894702435E0
1.961123563E1;-4.973355293E0;-1.690306425E0;-1.668160081E0
1.962790161E1;-5.445013046E0;-1.076193690E0;-7.335235596E0
1.964456760E1;-6.047753334E0;1.352723956E0;-3.708618402E0
1.966123359E1;-6.737283707E0;4.058770657E0;-5.925649032E-2
1.967789958E1;-6.644508362E0;5.638943672E0;1.202487826E0
1.969456557E1;-5.337872505E0;6.243479252E0;2.160767078E0
1.971123156E1;-3.637989521E0;6.004059315E0;2.761711597E0
1.972789755E1;-1.909375906E0;4.182071686E0;1.446097851E0
1.974456354E1;-8.625111580E-1;1.801038265E0;2.436100245E-1
1.976122953E1;-2.085948229E0;-2.309806108E0;5.255272985E-1
1.977789552E1;-3.168725967E0;-7.500435352E0;-4.121019840E0
1.979456151E1;-3.339312792E0;-1.780687523E1;-7.141304970E0
1.981122750E1;-3.329137564E0;-5.183147430E1;-8.766967773E0
1.982789349E1;-1.993172914E-1;-7.180210876E1;-2.221100998E1
1.984455948E1;-2.729988575E0;-4.697244263E1;-9.840168953E0
1.986122547E1;-5.986701488E0;-1.984374237E1;2.647987127E0
1.987789146E1;-1.014662647E1;-7.849988937E0;1.784218979E1
1.989455745E1;-8.883087158E0;-7.677606106E0;1.239178944E1
1.991122344E1;-2.795829058E0;-1.428021622E1;1.895010591E0
1.992788943E1;-2.042852640E0;-1.366430759E1;-2.328361034E0
1.994455542E1;-1.242590666E0;-1.053628349E1;-3.372831583E0
1.996122141E1;6.147112846E-1;-7.160458565E0;-3.150769472E0
1.997788740E1;2.466027737E0;-4.340687752E0;-3.010110140E0
1.999455338E1;4.267664433E0;-2.212242365E0;-2.176329374E0
2.001121938E1;5.436633587E0;-9.074024558E-1;-6.482301354E-1
2.002788536E1;5.361814499E0;1.616086215E-1;-2.388216257E-1
2.004455135E1;3.758896589E0;1.288080573E0;-1.564012289E0
2.006121734E1;1.367089152E0;3.105878115E0;-1.810615063E0
2.007788333E1;-5.746083856E-1;5.790376663E0;-6.530185342E-1
2.009454932E1;-4.846462727E0;7.298125267E0;-3.971980572E0
2.011121531E1;-7.888894558E0;6.638522625E0;-6.356007099E0
2.012788130E1;-1.052311516E1;5.498882771E0;-9.852139950E-1
2.014454729E1;-1.322437286E1;-5.446808785E-2;1.309508610E1
2.016121328E1;-1.103128433E0;-7.866748333E0;-2.680308819E0
2.017787927E1;3.369838893E-1;-9.264962196E0;-9.879075050E0
2.019454526E1;3.182492495E0;-2.251507187E1;-6.543353081E0
2.021121125E1;7.447164536E0;-3.801872635E1;-7.520786285E0
2.022787724E1;6.830657482E0;-4.817612839E1;-1.706467271E0
2.024454323E1;3.974973440E0;-3.529412460E1;-1.209071875E-1
2.026120922E1;1.540668845E0;-2.195901871E1;1.307832718E0
2.027787521E1;-2.527678490E0;-1.789127159E1;-1.669955701E-1
2.029454120E1;-8.543708801E0;-1.826117516E1;-3.051409960E0
2.031120719E1;-1.241872406E1;-1.707185555E1;-8.419210434E0
2.032787318E1;-1.678933907E1;-1.313159752E1;-1.240136623E1
2.034453917E1;-1.653435707E1;-1.056740761E1;-9.208099365E0
2.036120516E1;-1.263420200E1;-8.646659851E0;-2.715024710E0
2.037787115E1;-6.776787758E0;-8.411429405E0;8.558672905E0
2.039453714E1;-6.124966621E0;-5.386355400E0;1.165497398E1
2.041120312E1;-6.955155849E0;-2.224213362E0;8.334815025E0
2.042786911E1;-6.948571682E0;-3.926490843E-1;2.624643564E0
2.044453510E1;-6.517615795E0;9.169792533E-1;-3.645172119E0
2.046120109E1;-6.277596951E0;2.085349798E0;-4.361038208E0
2.047786708E1;-6.476913929E0;4.101267338E0;-2.106897533E-1
2.049453307E1;-6.666056156E0;5.735310078E0;1.730409265E0
2.051119906E1;-6.015431881E0;6.247070789E0;1.410184860E0
2.052786505E1;-3.519476414E0;4.984727859E0;6.224924326E-1
2.054453104E1;-1.166574836E0;2.686892748E0;1.133055925E0
2.056119703E1;-1.759139657E0;7.607575655E-1;2.264316320E0
2.057786302E1;-5.992686749E0;-6.484695435E0;8.032546639E-1
2.059452901E1;-5.303156853E0;-1.327465153E1;-5.774814606E0
2.061119500E1;-5.893327713E0;-3.245878983E1;-1.141914463E1
2.062786099E1;1.414374709E0;-6.332783127E1;-1.658583260E1
2.064452698E1;5.921459198E0;-6.123769379E1;-1.450287724E1
2.066119297E1;2.864662409E0;-3.026809692E1;3.661931515E0
2.067785896E1;-5.567716122E0;-1.276109505E1;1.052431202E1
2.069452495E1;-1.317768574E1;-5.200804710E0;1.211286449E1
2.071119094E1;-8.576030731E0;-1.006223106E1;2.911349297E0
2.072785693E1;-6.276399612E0;-1.235408115E1;-1.291073322E0
2.074452292E1;-3.303998232E0;-1.217750835E1;-2.405574083E0
2.076118891E1;-1.173158810E-1;-9.531316757E0;-1.697489023E0
2.077785490E1;1.839944005E0;-6.365583897E0;-9.056068063E-1
2.079452088E1;3.210026026E0;-3.742137194E0;-1.068412542E0
2.081118688E1;4.183269024E0;-1.306635618E0;-8.768763542E-1
2.082785286E1;4.556165695E0;8.421604633E-1;3.028665185E-1
2.084451885E1;3.785232782E0;2.478597403E0;1.213860273E0
2.086118484E1;2.252943754E0;2.750339270E0;4.608838260E-1
2.087785083E1;1.759738177E-1;4.913500309E0;-4.453215301E-1
2.089451682E1;-4.453215122E0;6.904279232E0;-6.385934353E0
2.091118281E1;-8.853757858E0;6.408679485E0;-8.656236649E0
2.092784880E1;-8.647257805E0;5.339668274E0;-1.263539910E0
2.094451479E1;-6.666056156E0;6.901286244E-1;7.982867241E0
2.096118078E1;1.616086215E-1;-7.611765862E0;3.831321239E0
2.097784677E1;1.744175911E0;-7.411849976E0;-6.734889507E0
2.099451276E1;3.718793869E0;-1.915780258E1;-7.304709435E0
2.101117875E1;6.093842030E0;-3.770628357E1;-2.608482838E0
2.102784474E1;8.457517624E0;-5.502054977E1;2.671330452E0
2.104451073E1;5.853823423E-1;-3.899675751E1;-1.542464495E0
2.106117672E1;-6.099827290E0;-2.090257835E1;-1.121084929E0
2.107784271E1;-6.588244438E0;-1.562635612E1;-3.830722809E0
2.109450870E1;-8.945336342E0;-1.479197693E1;-7.584232330E0
2.111117469E1;-1.336383533E1;-1.389534855E1;-7.873930931E0
2.112784068E1;-1.628296661E1;-1.122701073E1;-6.021417141E0
2.114450667E1;-1.528218937E1;-9.263166428E0;-5.082890034E0
2.116117266E1;-1.216374207E1;-7.750629425E0;-6.051344872E-1
2.117783865E1;-7.228693485E0;-6.877344608E0;8.008006096E0
2.119450464E1;-4.615422249E0;-4.495113850E0;1.168490124E1
2.121117062E1;-4.395155907E0;-1.853710651E0;8.009202957E0
2.122783661E1;-4.540005207E0;-6.075286865E-1;2.768295765E0
2.124450260E1;-4.961384296E0;5.979518890E-1;-2.630629063E0
2.126116859E1;-5.315127850E0;2.005742550E0;-4.630984783E0
2.127783458E1;-5.306747913E0;3.136404276E0;-3.050811529E0
2.129450057E1;-4.721365929E0;3.743334293E0;-1.781286120E0
2.131116656E1;-4.532223701E0;4.935048103E0;-1.275510907E0
2.132783255E1;-4.009689331E0;5.615600109E0;9.947907925E-1
2.134449854E1;-3.388393879E0;4.940435410E0;3.691260576E0
2.136116453E1;-4.727949619E0;1.194706678E0;6.648099422E0
2.137783052E1;-5.557540894E0;-5.842450619E0;1.462258697E0
2.139449651E1;-4.546588898E0;-1.258990955E1;-3.922300816E0
2.141116250E1;-3.450044632E0;-4.209844589E1;-1.350210094E1
2.142782849E1;1.864484549E0;-7.153934479E1;-2.045965004E1
2.144449448E1;1.635239720E0;-5.461293793E1;-1.753214073E1
2.146116047E1;2.334346622E-2;-2.683720589E1;-3.632004023E0
2.147782646E1;-1.105941582E1;-1.065419769E1;1.105522633E1
2.149449245E1;-1.909375763E1;-4.086902142E0;2.194944191E1
2.151115844E1;-8.634089470E0;-1.072542477E1;6.730101109E0
2.152782443E1;-2.915539026E0;-1.233432865E1;2.867056429E-1
2.154449042E1;-6.135141850E-1;-1.180161858E1;-3.227982521E0
2.156115641E1;6.763619781E-1;-9.220070839E0;-3.786429882E0
2.157782240E1;1.864484549E0;-6.169857979E0;-3.605069160E0
2.159448839E1;3.360262156E0;-3.861248732E0;-3.213018656E0
2.161115438E1;4.598064423E0;-1.665167332E0;-2.442085743E0
2.162782036E1;5.096058369E0;3.214215636E-1;-2.794033289E0
2.164448635E1;5.186439514E0;2.160767078E0;-3.742735863E0
2.166115234E1;4.705204964E0;5.090671539E0;-3.675099611E-1
2.167781833E1;2.368463993E0;7.029376030E0;1.399410844E0
2.169448432E1;-2.506130695E0;8.018181801E0;-3.049015760E0
2.171115031E1;-6.137536049E0;6.936600685E0;-3.731363297E0
2.172781630E1;-1.073919201E1;6.666056156E0;3.053205729E0
2.174448229E1;-1.142932034E1;-7.050924301E-1;1.157955647E1
2.176114828E1;-1.923142552E0;-6.928819656E0;2.717418969E-1
2.177781427E1;-4.327519536E-1;-5.709572315E0;-1.039562416E1
2.179448026E1;1.446097851E0;-1.334647751E1;-1.044350815E1
2.181114625E1;6.500257492E0;-3.056557655E1;-4.714183331E0
2.182781224E1;9.032724380E0;-4.677072906E1;-6.449979305E0
2.184447823E1;1.853710651E0;-4.922957611E1;-9.269151688E0
2.186114422E1;-3.836708307E0;-3.726814270E1;-3.450643301E0
2.187781021E1;-3.505111217E0;-2.150412178E1;1.854907751E0
2.189447620E1;-5.790376663E0;-1.545816326E1;1.528099179E0
2.191114219E1;-1.084154415E1;-1.355177975E1;7.900865674E-1
2.192780818E1;-1.570237160E1;-1.104086113E1;-6.440402865E-1
2.194447417E1;-1.731666183E1;-7.940968513E0;-5.171475410E-1
2.196114016E1;-1.327165890E1;-5.392340660E0;2.626439333E0
2.197780615E1;-9.645640373E0;-3.523067713E0;4.501697540E0
2.199447214E1;-7.383119583E0;-3.189675331E0;4.955399036E0
2.201113813E1;-4.698620796E0;-2.981978178E0;1.414374709E0
2.202780411E1;-2.475006104E0;-2.416946650E0;-2.070385933E0
2.204447010E1;-2.896385431E0;1.855506375E-2;-3.037044764E0
2.206113609E1;-4.088099480E0;3.026869535E0;-1.279700756E0
2.207780208E1;-5.127781391E0;5.191826344E0;8.134300113E-1
2.209446807E1;-4.884171486E0;5.652710438E0;3.793014050E0
2.211113406E1;-4.817133904E0;5.924452305E0;5.203198910E0
2.212780005E1;-4.046799660E0;4.695029736E0;3.178302765E0
2.214446604E1;-2.597708941E0;2.148197412E0;1.698686123E0
2.216113203E1;-5.139752388E0;-5.766434669E0;-3.818751574E-1
2.217779802E1;-3.260902643E0;-1.069669437E1;-6.520608425E0
2.219446401E1;-2.712630510E0;-2.543779373E1;-1.002811337E1
2.221113000E1;-7.876923680E-1;-5.413648987E1;-1.223856068E1
2.222779599E1;2.161365509E0;-6.652349091E1;-2.157534790E1
2.224446198E1;-2.200869799E0;-3.682641220E1;-6.823474884E0
2.226112797E1;-1.180221748E1;-1.458966637E1;6.243479252E0
2.227779396E1;-1.448970890E1;-6.752247334E0;1.548030949E1
2.229445995E1;-7.972691536E0;-1.133654499E1;7.380725384E0
2.231112594E1;-4.806958675E0;-1.236305904E1;1.280299306E0
2.232779193E1;-2.567781210E0;-1.167233181E1;-1.801636815E0
2.234445792E1;-4.124012291E-1;-9.664793968E0;-1.981201887E0
2.236112391E1;1.730409265E0;-6.935403824E0;-2.239775658E0
2.237778990E1;3.604470730E0;-3.942651749E0;-2.580949545E0
2.239445589E1;5.237914562E0;-1.510741234E0;-2.396595955E0
2.241112188E1;6.196194172E0;5.764040351E-1;-7.559691668E-1
2.242778786E1;5.771821976E0;2.129043818E0;-1.759738177E-1
2.244445385E1;4.518456936E0;2.874239206E0;-8.942343593E-1
2.246111984E1;3.961206675E0;5.354631901E0;1.089361757E-1
2.247778583E1;1.552041292E0;8.300098419E0;2.331952572E0
2.249445182E1;-4.356249809E0;7.782951355E0;-6.597821236E0
2.251111781E1;-8.341997147E0;5.210381508E0;-7.015010834E0
2.252778380E1;-8.910619736E0;2.767697096E0;1.415571809E0
2.254444979E1;-7.677007675E0;-4.430470467E0;9.672574997E0
2.256111578E1;-2.330755472E0;-5.963357925E0;-2.551021814E0
2.257778177E1;-2.218227863E0;-1.299273396E1;-8.175600052E0
2.259444776E1;1.754351258E0;-3.824258423E1;-9.202114105E0
2.261111375E1;3.055599928E0;-4.879801941E1;-1.219726086E1
2.262777974E1;8.325836658E-1;-3.668395996E1;-1.045667553E1
2.264444573E1;1.479616642E0;-2.354517746E1;5.716156483E0
2.266111172E1;-5.985504016E-3;-1.629912567E1;7.164648533E0
2.267777771E1;-3.688267708E0;-1.518582249E1;3.913322687E0
2.269444370E1;-8.658630371E0;-1.892736244E1;-3.822343111E0
2.271110969E1;-1.158554173E1;-1.737591934E1;-1.054107189E1
2.272777568E1;-1.285147572E1;-1.285387039E1;-1.391270638E1
2.274444167E1;-1.180700588E1;-1.024957752E1;-8.286332130E0
2.276110766E1;-9.091980934E0;-7.366958618E0;-2.759317398E0
2.277777365E1;-6.460753441E0;-6.561908245E0;7.666832447E0
2.279443964E1;-6.170456409E0;-4.283825397E0;1.105223370E1
2.281110562E1;-5.630563736E0;-1.744175911E0;7.840412140E0
2.282777161E1;-5.423465252E0;-4.991910458E-1;2.348711967E0
2.284443760E1;-6.518812656E0;7.882909179E-1;-3.337517262E0
2.286110359E1;-7.579443932E0;2.451662540E0;-2.728192806E0
2.287776958E1;-8.070854187E0;4.079719543E0;3.746925592E-1
2.289443557E1;-7.838616371E0;4.844666958E0;1.801636815E0
2.291110156E1;-6.847416878E0;4.744709015E0;2.152387381E0
2.292776755E1;-3.332130194E0;3.222595453E0;2.069188833E0
2.294443354E1;-4.213795066E-1;9.265560508E-1;1.404797792E0
2.296109953E1;9.570821524E-1;-3.130418658E-1;8.289923668E-1
2.297776552E1;-2.400785685E0;-4.832695961E0;3.926490843E-1
2.299443151E1;-4.191648483E0;-1.047223854E1;-3.646967649E0
2.301109750E1;-5.158307552E0;-2.548268509E1;-8.938752174E0
2.302776349E1;-1.952471495E0;-6.191525269E1;-1.867477417E1
2.304442948E1;1.477820992E0;-6.727526855E1;-2.274970436E1
2.306109547E1;-2.222417831E0;-3.187999344E1;8.421604633E-1
2.307776146E1;-1.138742161E1;-1.066257763E1;2.114319611E1
2.309442745E1;-4.891354084E0;-9.480440140E0;1.130961037E1
2.311109344E1;-3.620631456E0;-1.267131233E1;1.581968784E0
2.312775943E1;-7.316680431E0;-1.199016190E1;-2.086546898E0
2.314442542E1;-6.089053631E0;-1.078587818E1;-2.439691544E0
2.316109141E1;-3.246537447E0;-8.422203064E0;-1.915361404E0
2.317775740E1;-1.969230920E-1;-5.828683853E0;-1.520916581E0
2.319442338E1;1.898003340E0;-3.383605480E0;-1.069011092E0
2.321108938E1;3.985747337E0;-2.139817715E0;-9.181763530E-1
2.322775536E1;4.899733543E0;-1.168969035E0;-4.961982965E-1
2.324442135E1;4.443039894E0;1.280897856E-1;4.620809257E-1
2.326108734E1;2.439092875E0;1.549647093E0;7.200561762E-1
2.327775333E1;4.004302323E-1;3.245340347E0;1.825578809E-1
2.329441932E1;-1.306635618E0;5.993285179E0;-1.598728180E0
2.331108531E1;-6.369174957E0;7.215525150E0;-8.775946617E0
2.332775130E1;-8.711302757E0;5.921459198E0;-7.566276073E0
2.334441729E1;-7.438784599E0;3.884592295E0;-1.869871497E0
2.336108328E1;-7.101202011E0;-6.398503780E-1;9.066842079E0
2.337774927E1;-1.732803464E0;-6.779780865E0;3.621230125E0
2.339441526E1;-4.429273307E-2;-9.609128952E0;-3.448249102E0
2.341108125E1;2.230797529E0;-2.898480415E1;-4.368819714E0
2.342774724E1;5.904101372E0;-4.677791214E1;-7.671620846E0
2.344441323E1;4.192845821E0;-4.388930893E1;-7.861361504E0
2.346107922E1;2.811989784E0;-2.521154213E1;9.923965931E-1
2.347774521E1;1.277905107E0;-1.708382607E1;2.744952202E0
2.349441120E1;-1.423352957E0;-1.556051540E1;8.583213091E-1
2.351107719E1;-7.988852501E0;-1.863347244E1;-4.520252705E0
2.352774318E1;-1.375588608E1;-1.903210831E1;-9.803657532E0
2.354440917E1;-1.664927864E1;-1.516846466E1;-1.260966206E1
2.356107516E1;-1.512955952E1;-1.181359005E1;-9.325415611E0
2.357774115E1;-1.095766258E1;-8.955511093E0;-3.690063477E0
2.359440714E1;-4.939238071E0;-8.321646690E0;8.433575630E0
2.361107312E1;-4.815936565E0;-5.858013153E0;1.328422832E1
2.362773911E1;-5.465962410E0;-2.616263866E0;1.009814453E1
2.364440510E1;-4.841674328E0;-1.354519606E0;2.835932016E0
2.366107109E1;-5.105036736E0;-6.194996834E-1;-4.194042683E0
2.367773708E1;-6.362590790E0;1.128866076E0;-3.845686436E0
2.369440307E1;-7.577648163E0;3.506308317E0;-8.678980917E-2
2.371106906E1;-7.754819393E0;4.770446777E0;2.460640907E0
2.372773505E1;-7.407660007E0;5.099050999E0;3.748122692E0
2.374440104E1;-5.986701488E0;4.573523998E0;3.136404276E0
2.376106703E1;-1.908178806E0;1.838148355E0;7.673416734E-1
2.377773302E1;1.550245583E-1;-1.065419763E-1;-7.613561153E-1
2.379439901E1;-2.306214809E0;-6.030395508E0;-4.704606235E-1
2.381106500E1;-3.308188200E0;-1.146164227E1;-4.688445568E0
2.382773099E1;-3.328538895E0;-2.102288628E1;-7.783549786E0
2.384439698E1;-1.644816518E0;-4.606204605E1;-8.674791336E0
2.386106297E1;1.079186440E0;-6.571604919E1;-1.609202766E1
2.387772896E1;-3.345298290E0;-4.157830429E1;-9.621698380E0
2.389439495E1;-1.342728138E1;-1.447474480E1;3.405153275E0
2.391106094E1;-1.344583702E1;-6.647500992E0;1.523610115E1
2.392772693E1;-8.548497200E0;-8.844181061E0;7.997830868E0
2.394439292E1;-4.280832767E0;-1.308311558E1;-1.634042710E-1
2.396105891E1;-2.424727678E0;-1.257015705E1;-4.630984783E0
2.397772490E1;-2.992752008E-3;-9.783905029E0;-4.909909248E0
2.399439088E1;2.577358246E0;-6.079476833E0;-3.393182278E0
2.401105688E1;5.345654011E0;-2.621650934E0;-1.738190413E0
2.402772286E1;8.063671112E0;-4.153940082E-1;-7.841010392E-2
2.404438885E1;9.284115791E0;9.935936928E-1;2.614468336E0
2.406105484E1;7.718307495E0;1.579574585E0;2.194884300E0
2.407772083E1;5.570708752E0;4.064755917E0;4.083311081E0
2.409438682E1;3.980360270E0;7.376535416E0;3.469796896E0
2.411105281E1;-3.188478231E0;8.714894295E0;-3.809773445E0
2.412771880E1;-9.541492462E0;6.766014099E0;-1.046146393E1
2.414438479E1;-1.044350815E1;3.810372114E0;-7.295132637E0
2.416105078E1;-8.710704803E0;5.243301988E-1;6.793547273E-1
2.417771677E1;-6.698976517E0;-6.330867767E0;4.411915302E0
2.419438276E1;-3.859453201E0;-1.207276249E1;-8.092401624E-1
2.421104875E1;8.948329091E-1;-3.227503586E1;-5.025429249E0
2.422771474E1;3.128024578E0;-5.030696487E1;-1.032858658E1
2.424438073E1;2.036268473E0;-4.141789246E1;-9.648633003E-1
2.426104672E1;5.574898720E0;-2.390730095E1;4.801571369E0
2.427771271E1;3.253720045E0;-1.651340675E1;4.185064793E0
2.429437870E1;-2.705447972E-1;-1.496615505E1;-4.884171486E-1
2.431104469E1;-5.788581371E0;-1.802295113E1;-8.081627846E0
2.432771068E1;-1.097921085E1;-1.847126579E1;-1.576222706E1
2.434437667E1;-1.352963352E1;-1.487816811E1;-1.474768353E1
2.436104266E1;-1.296041203E1;-1.102350330E1;-6.242880821E0
2.437770865E1;-1.028608894E1;-8.671199799E0;-2.862866640E0
2.439437464E1;-7.289146900E0;-8.948328972E0;6.683413982E0
2.441104063E1;-5.477334976E0;-7.132925510E0;1.260607052E1
2.442770661E1;-5.452195644E0;-4.232948780E0;1.053388882E1
2.444437260E1;-5.455787182E0;-2.731784105E0;5.024232388E0
2.446103859E1;-5.783792973E0;-1.438915253E0;-2.935291290E0
2.447770458E1;-6.956951618E0;2.687491477E-1;-6.642712593E0
2.449437057E1;-8.320449829E0;3.130418777E0;-2.982576847E0
2.451103656E1;-9.041104317E0;5.633556366E0;1.197100878E0
2.452770255E1;-8.777143478E0;6.774393559E0;2.967014551E0
2.454436854E1;-7.362170219E0;6.883329868E0;4.034828186E0
2.456103453E1;-3.938461781E0;4.665700436E0;3.566761971E0
2.457770052E1;-2.369062662E0;2.152387381E0;1.781884670E0
2.459436651E1;-5.650914669E0;-5.347449303E0;-2.723404467E-1
2.461103250E1;-4.845864296E0;-1.262402725E1;-7.996035099E0
2.462769849E1;-3.963002443E0;-2.855504417E1;-1.222718811E1
2.464436448E1;7.757213712E-1;-5.799354935E1;-1.212842751E1
2.466103047E1;2.411559582E0;-6.248447418E1;-1.512596798E1
2.467769646E1;1.087566137E0;-3.473986816E1;-2.783259392E0
2.469436245E1;-7.240066051E0;-1.522293282E1;7.425017834E0
2.471102844E1;-1.266951656E1;-7.722497463E0;1.703713989E1
2.472769443E1;-5.855020046E0;-1.198956394E1;6.419453144E0
2.474436042E1;-1.692700624E0;-1.512896061E1;-1.386242747E0
2.476102641E1;-4.680664241E-1;-1.427842045E1;-3.588309765E0
2.477769240E1;1.291671872E0;-1.033038139E1;-2.862268209E0
2.479435839E1;3.239354849E0;-6.325480938E0;-1.737591863E0
2.481102438E1;4.959589005E0;-3.235763550E0;-1.817797661E0
2.482769036E1;6.589441776E0;-1.109712481E0;-1.775300503E0
2.484435635E1;7.261613846E0;3.627215624E-1;-1.849520802E-1
2.486102234E1;6.800131321E0;1.727416515E0;5.943605900E-1
2.487768833E1;4.808155537E0;3.555389643E0;2.140416384E0
2.489435432E1;3.932476282E0;5.841852188E0;1.505354285E0
2.491102031E1;4.453215301E-1;7.116764545E0;-2.832340717E0
2.492768630E1;-5.178658485E0;6.582259178E0;-6.959944248E0
2.494435229E1;-7.900865555E0;5.319916248E0;-5.127781391E0
2.496101828E1;-8.643666267E0;4.134187698E0;1.685518026E0
2.497768427E1;-7.832630634E0;-2.882618904E0;6.666056156E0
2.499435026E1;-4.590881824E0;-6.347028732E0;-5.297171474E-1
2.501101625E1;-3.601477861E0;-1.737172890E1;-5.035006046E0
2.502768224E1;2.316988707E0;-4.186321640E1;-7.651868820E0
2.504434823E1;5.581482887E0;-5.780979538E1;-1.218229675E1
2.506101422E1;5.921459198E0;-3.692158127E1;9.678560495E-1
2.507768021E1;2.895787001E0;-2.024716568E1;3.461417198E0
2.509434620E1;6.661866307E-1;-1.475606346E1;8.607155085E-1
2.511101219E1;-3.406350374E0;-1.727835464E1;-2.121262789E0
2.512767818E1;-9.716269493E0;-1.922005272E1;-1.147600746E1
2.514434417E1;-1.782542992E1;-1.624406052E1;-1.755428696E1
2.516101016E1;-1.833120537E1;-1.164360142E1;-9.527725220E0
2.517767615E1;-1.241992092E1;-8.157643318E0;-5.883750916E-1
2.519434214E1;-5.719149113E0;-8.071452141E0;1.297717190E1
2.521100813E1;-6.080075264E0;-4.715978622E0;1.507209778E1
2.522767411E1;-7.005434036E0;-1.571793437E0;8.825027466E0
2.524434010E1;-7.138312340E0;-2.795230448E-1;-1.077390760E-1
2.526100609E1;-6.706757545E0;-1.256955881E-2;-6.732495308E0
2.527767208E1;-6.544550419E0;9.702502489E-1;-3.955221176E0
2.529433807E1;-6.964134216E0;3.341108561E0;-5.087678507E-2
2.531100406E1;-6.946776390E0;4.673481941E0;1.496974587E0
2.532767005E1;-5.733514309E0;4.947618008E0;1.917755604E0
2.534433604E1;-2.810792685E0;3.743932962E0;2.270900249E0
2.536100203E1;-4.830302000E-1;1.962646842E0;1.886630893E0
2.537766802E1;-1.744175911E0;-9.313444495E-1;2.740163803E0
2.539433401E1;-5.337872505E0;-8.421604156E0;1.855506301E-1
2.541100000E1;-4.299387932E0;-1.464892292E1;-5.082890034E0
2.542766599E1;-4.389170170E0;-3.470455170E1;-9.942521095E0
2.544433198E1;1.043871999E0;-5.979219437E1;-1.636197472E1
2.546099797E1;3.268683910E0;-5.390006256E1;-1.608544350E1
2.547766396E1;2.543839216E0;-3.108451843E1;-6.712144375E0
2.549432995E1;-3.948637247E0;-1.364874554E1;8.750807047E-1
2.551099594E1;-9.938331604E0;-5.376179695E0;1.186925507E1
2.552766193E1;-7.860164165E0;-9.103353500E0;1.138502789E1
2.554432792E1;-2.521094322E0;-1.328243256E1;3.851671934E0
2.556099391E1;-3.788824081E-1;-1.199614716E1;-1.019331336E0
2.557765990E1;1.117493629E0;-9.194931984E0;-1.261744261E0
2.559432588E1;2.606088638E0;-6.115389824E0;-3.986345828E-1
2.561099188E1;3.810372114E0;-3.435081005E0;-3.675099611E-1
2.562765786E1;4.879981518E0;-1.738190413E0;-3.746925592E-1
2.564432385E1;5.220556736E0;-1.191115379E-1;1.316212416E0
2.566098984E1;4.638167381E0;2.133233786E0;3.527856112E0
2.567765583E1;2.561197281E0;3.225588322E0;3.341108561E0
2.569432182E1;1.268926859E-1;5.000888824E0;1.292868972E0
2.571098781E1;-2.224213362E0;7.022792339E0;-4.947019100E0
2.572765380E1;-8.661623001E0;6.537367821E0;-1.066557026E1
2.574431979E1;-9.494206429E0;5.167884350E0;-4.908113480E0
2.576098578E1;-6.736086369E0;1.299453020E0;1.142034173E0
2.577765177E1;-5.263652325E0;-6.485293865E0;1.338358760E0
2.579431776E1;-4.589684486E0;-1.758361626E1;-3.321954966E0
2.581098375E1;1.389235497E0;-4.188117218E1;-6.439205647E0
2.582764974E1;6.287173748E0;-4.896142578E1;-7.349600792E0
2.584431573E1;8.699332237E0;-3.249530411E1;4.079121113E0
2.586098172E1;4.577115059E0;-1.997542381E1;4.892550945E0
2.587764771E1;1.807023764E0;-1.657984734E1;2.777273953E-1
2.589431370E1;-7.607575655E-1;-1.735975838E1;-5.282805920E0
2.591097969E1;-5.070320606E0;-1.937866783E1;-1.059134960E1
2.592764568E1;-1.137485218E1;-1.884356499E1;-1.598608494E1
2.594431167E1;-1.489373016E1;-1.494520569E1;-1.218588829E1
2.596097766E1;-1.349312210E1;-1.019570827E1;-5.686229229E0
2.597764365E1;-1.051653099E1;-7.944559574E0;2.653972626E0
2.599430964E1;-7.800907612E0;-7.028777599E0;1.384506989E1
2.601097562E1;-6.855197906E0;-2.951452255E0;1.415452003E1
2.602764161E1;-6.331466198E0;-7.505822182E-1;6.895300865E0
2.604430760E1;-6.056133270E0;1.352723986E-1;-6.997054219E-1
2.606097359E1;-5.492298603E0;4.638765752E-1;-7.231087685E0
2.607763958E1;-4.751891613E0;1.390432596E0;-5.364807606E0
2.609430557E1;-4.750096321E0;3.496731520E0;-6.985083222E-1
2.611097156E1;-4.950610638E0;5.251082897E0;1.471236944E0
2.612763755E1;-5.199607372E0;5.887341976E0;1.319205165E0
2.614430354E1;-3.929483652E0;4.632181644E0;1.276109457E0
2.616096953E1;-2.573168278E0;2.511517525E0;1.671152830E0
2.617763552E1;-3.515286684E0;2.962824702E-1;1.628655672E0
2.619430151E1;-6.599018574E0;-5.647323132E0;1.000177741E0
2.621096750E1;-6.070498466E0;-1.262821674E1;-3.576338768E0
2.622763349E1;-6.631340027E0;-3.501819229E1;-9.345766068E0
2.624429948E1;8.720879555E-1;-6.929119110E1;-1.976652908E1
2.626096547E1;5.632359505E0;-6.341282654E1;-1.408508873E1
2.627763146E1;1.592144132E0;-2.956719398E1;2.679710150E0
2.629429745E1;-8.975862503E0;-1.044769764E1;1.427063942E1
2.631096344E1;-1.325190639E1;-6.749254704E0;1.529176617E1
2.632762943E1;-7.027580738E0;-1.348773575E1;3.579930067E0
2.634429542E1;-4.304176331E0;-1.440710831E1;-2.452261209E0
2.636096141E1;-1.444900751E0;-1.300231075E1;-4.437653065E0
2.637762740E1;9.834183455E-1;-9.570821762E0;-3.493738890E0
2.639429338E1;3.139396906E0;-5.889736176E0;-2.309207439E0
2.641095938E1;5.310937881E0;-3.172915697E0;-1.245583415E0
2.642762536E1;6.825270653E0;-1.547252893E0;2.801215947E-1
2.644429135E1;6.719326973E0;-9.157821536E-2;-1.855506301E-1
2.646095734E1;4.630984783E0;1.736394763E0;-7.858967185E-1
2.647762333E1;3.271676540E0;4.584297657E0;-1.130661726E0
2.649428932E1;1.781884670E0;7.115567684E0;1.204283476E0
2.651095531E1;-1.750759959E0;7.893084526E0;-1.139041424E0
2.652762130E1;-5.383362293E0;6.933608055E0;-4.163516521E0
2.654428729E1;-7.973290443E0;6.217143059E0;-1.194706678E0
2.656095328E1;-9.975440979E0;4.959589005E0;5.260061264E0
2.657761927E1;-6.128557682E0;-2.488174200E0;7.188590527E0
2.659428526E1;5.871779919E-1;-4.168305397E0;-6.758831501E0
2.661095125E1;4.022258818E-1;-5.905298710E0;-8.662221909E0
2.662761724E1;1.094150186E0;-2.153763962E1;-3.974973440E0
2.664428323E1;5.990292549E0;-4.135265350E1;-5.402516365E0
2.666094922E1;7.061099529E0;-5.467099762E1;-1.096723938E1
2.667761521E1;-2.877830505E0;-4.610813522E1;-5.048772812E0
2.669428120E1;-3.911526918E0;-2.377382469E1;4.055179119E0
2.671094719E1;-3.412335873E0;-1.474050140E1;5.111021996E0
2.672761318E1;-6.285976410E0;-1.479197693E1;2.294842243E0
2.674427917E1;-1.160529423E1;-1.494939518E1;-3.332130194E0
2.676094516E1;-1.601301956E1;-1.217870522E1;-1.256477070E1
2.677761115E1;-1.667441750E1;-9.423578262E0;-1.104924107E1
2.679427714E1;-1.112166500E1;-6.496067524E0;6.212953329E-1
2.681094312E1;-7.869142532E0;-5.482721806E0;1.133774185E1
2.682760911E1;-6.810306549E0;-3.578732967E0;1.258332539E1
2.684427510E1;-6.135740280E0;-2.457648039E0;6.291363716E0
2.686094109E1;-5.886743546E0;-1.833359957E0;-1.816002011E0
2.687760708E1;-7.272387505E0;-1.993172914E-1;-6.029797077E0
2.689427307E1;-7.765593052E0;2.308609009E0;-2.947860956E0
2.691093906E1;-7.193977356E0;4.206612587E0;7.775170207E-1
2.692760505E1;-6.929418087E0;5.231929302E0;3.308786631E0
2.694427104E1;-6.560112476E0;5.695806026E0;3.482964993E0
2.696093703E1;-4.177283287E0;4.437054157E0;1.780089021E0
2.697760302E1;-2.109890223E0;2.584540844E0;2.454056777E-2
2.699426901E1;-4.167108059E0;-2.631227732E0;5.626373887E-1
2.701093500E1;-5.237914562E0;-9.294290543E0;-2.938283920E0
2.702760099E1;-4.991312027E0;-1.762790871E1;-8.376114845E0
2.704426698E1;-1.285087705E0;-4.756560516E1;-1.520377922E1
2.706093297E1;2.501940727E0;-6.863338470E1;-2.081638718E1
2.707759896E1;3.976170540E0;-4.723460770E1;-9.544485092E0
2.709426495E1;-4.408323765E0;-2.096662331E1;4.197634220E0
2.711093094E1;-1.421976280E1;-7.922413349E0;1.958576775E1
2.712759693E1;-7.785943985E0;-1.008018780E1;9.238625526E0
2.714426292E1;-3.180696964E0;-1.376546288E1;8.176198602E-1
2.716092891E1;-2.115277290E0;-1.368226433E1;-3.387795448E0
2.717759490E1;-1.735796183E-1;-1.112346077E1;-2.743755102E0
2.719426089E1;1.777096152E0;-7.378331184E0;-1.248576164E0
2.721092688E1;3.443460703E0;-4.151545525E0;-8.942343593E-1
2.722759286E1;5.170876980E0;-1.967435241E0;-1.578976035E0
2.724425885E1;6.242282391E0;-1.795651275E-3;-9.463081956E-1
2.726092484E1;5.727529049E0;1.866878748E0;-9.337386489E-2
2.727759083E1;3.857657433E0;2.783259392E0;-1.346139908E0
2.729425682E1;2.749740601E0;4.700416565E0;-3.357867897E-1
2.731092281E1;1.334767461E0;7.314286232E0;4.504091740E0
2.732758880E1;-4.225167274E0;8.216301918E0;-2.485181332E0
2.734425479E1;-7.866149902E0;6.327276707E0;-6.777985096E0
2.736092078E1;-9.354146004E0;3.896563292E0;-3.481169224E0
2.737758677E1;-8.629301071E0;-4.441244006E-1;3.392583847E0
2.739425276E1;-3.880402327E0;-5.292382717E0;9.906009436E-1
2.741091875E1;-2.748543501E0;-7.710526466E0;-5.211578369E0
2.742758474E1;8.655039072E-1;-2.586216736E1;-6.123170853E0
2.744425073E1;5.553350925E0;-4.428315353E1;-9.414599419E0
2.746091672E1;5.408501625E0;-5.162258148E1;-9.504981041E0
2.747758271E1;4.326322556E0;-3.427598953E1;3.293823004E0
2.749424870E1;2.754528999E0;-2.065298271E1;4.985326290E0
2.751091469E1;-2.328361124E-1;-1.610040855E1;2.091335297E0
2.752758068E1;-6.437409878E0;-1.804689407E1;-6.739078999E0
2.754424667E1;-1.302026749E1;-1.762431717E1;-1.189020443E1
2.756091266E1;-1.618420410E1;-1.318905830E1;-1.302206326E1
2.757757865E1;-1.421497440E1;-1.030883408E1;-7.949347973E0
2.759424464E1;-1.087985134E1;-7.903259754E0;-1.891419291E-1
2.761091063E1;-8.579023361E0;-6.867767811E0;1.040699577E1
2.762757661E1;-8.601169586E0;-3.295020103E0;1.334827328E1
2.764424260E1;-7.750629425E0;-9.265560508E-1;8.557475090E0
2.766090859E1;-6.511031628E0;-6.236895323E-1;1.092354536E0
2.767757458E1;-6.107608318E0;-1.017535701E-1;-6.269815922E0
2.769424057E1;-6.282385349E0;1.173757434E0;-5.193622112E0
2.771090656E1;-6.994660378E0;3.791218281E0;-3.603273630E-1
2.772757255E1;-7.335235596E0;5.858013153E0;2.199074268E0
2.774423854E1;-6.938994884E0;6.576273441E0;2.496553898E0
2.776090453E1;-4.402338505E0;4.780622005E0;1.980004787E0
2.777757052E1;-2.191293001E0;1.948880196E0;3.705027103E-1
2.779423651E1;-2.358887196E0;5.686228871E-1;-3.274070919E-1
2.781090250E1;-6.036979675E0;-6.121973515E0;-8.212111592E-1
2.782756849E1;-5.411494255E0;-1.289995861E1;-4.867412090E0
2.784423448E1;-5.230133533E0;-3.457945633E1;-1.092414379E1
2.786090047E1;-6.224924326E-2;-6.597521973E1;-1.909734917E1
2.787756646E1;1.924339652E0;-5.907273865E1;-1.627877617E1
2.789423245E1;-3.052008629E0;-2.762250328E1;4.160523891E0
2.791089844E1;-1.252766037E1;-1.131739140E1;2.231635475E1
2.792756443E1;-7.337030888E0;-1.179982281E1;1.005504894E1
2.794423042E1;-5.354033470E0;-1.449150467E1;1.284489155E0
2.796089641E1;-4.352658749E0;-1.458128643E1;-2.893392801E0
2.797756240E1;-2.134430885E0;-1.273954678E1;-3.660135746E0
2.799422839E1;5.590460896E-1;-9.823410034E0;-3.601477861E0
2.801089438E1;3.164535999E0;-6.626551628E0;-3.646967649E0
2.802756036E1;5.570708752E0;-3.199252129E0;-3.098695517E0
2.804422635E1;6.878541470E0;-1.119887829E0;-2.755127668E0
2.806089234E1;7.155670166E0;5.207388401E-1;-1.821388960E0
2.807755833E1;6.678027153E0;1.990180135E0;3.112462163E-2
2.809422432E1;5.284003258E0;4.542399406E0;3.299209833E0
2.811089031E1;3.320159197E0;7.432799339E0;5.446210384E0
2.812755630E1;-1.458068848E0;9.624691010E0;8.625111580E-1
2.814422229E1;-6.687603951E0;8.959102631E0;-1.395819545E0
2.816088828E1;-1.205420685E1;6.780977726E0;2.047042400E-1
2.817755427E1;-1.025376701E1;8.265981078E-1;2.123656988E0
2.819422026E1;-2.207453966E0;-5.420472622E0;1.443105102E0
2.821088625E1;-9.995792061E-2;-6.767210960E0;-5.781398773E0
2.822755224E1;4.812345505E-1;-3.018130684E1;-2.575562477E0
2.824421823E1;6.624157429E0;-5.286636734E1;-8.203133583E0
2.826088422E1;4.854842663E0;-4.401380539E1;-1.273834991E1
2.827755021E1;7.912836671E-1;-2.660257339E1;-2.695272446E0
2.829421620E1;-1.444302201E0;-1.876874542E1;4.812345505E0
2.831088219E1;-3.632602453E0;-1.532049656E1;4.499902248E0
2.832754818E1;-8.283339500E0;-1.777036285E1;2.322375625E-1
2.834421417E1;-1.100614548E1;-1.934874153E1;-4.419097900E0
2.836088016E1;-9.845556259E0;-1.692880249E1;-1.264737034E1
2.837754615E1;-9.985017776E0;-1.348474216E1;-1.699942970E1
2.839421214E1;-9.708487511E0;-9.988011360E0;-8.087613106E0
2.841087813E1;-7.128137112E0;-5.811924458E0;1.020528436E0
2.842754411E1;-4.184465885E0;-4.554968834E0;1.000536919E1
2.844421010E1;-5.405508995E0;-3.353677988E0;1.121384239E1
2.846087609E1;-6.718130112E0;-1.683722377E0;5.925649166E0
2.847754208E1;-7.679401875E0;-5.776011348E-1;-2.765302956E-1
2.849420807E1;-9.434351921E0;1.109113932E0;-3.388393879E0
2.851087406E1;-1.046924591E1;2.819172382E0;-1.986588836E0
2.852754005E1;-1.002811337E1;3.725976467E0;-1.256955862E-1
2.854420604E1;-9.369110107E0;4.477755547E0;-6.284779310E-2
2.856087203E1;-8.058284760E0;4.907515049E0;-2.687491477E-1
2.857753802E1;-5.402516365E0;4.599261284E0;4.333505034E-1
2.859420401E1;-2.136226416E0;2.631227732E0;4.620809257E-1
2.861087000E1;-1.524507880E0;1.015141487E0;8.978256024E-3
2.862753599E1;-5.184045315E0;-5.598840714E0;-8.864531517E-1
2.864420198E1;-5.254673958E0;-1.294245625E1;-5.874772549E0
2.866086797E1;-5.986102581E0;-4.022198868E1;-1.485063457E1
2.867753396E1;-3.271078110E0;-7.400118256E1;-2.570355034E1
2.869419995E1;-6.458359361E-1;-5.254195404E1;-1.291492271E1
2.871086594E1;-1.030584145E1;-1.936669731E1;1.157536697E1
2.872753193E1;-1.593640518E1;-8.416815758E0;3.045963287E1
2.874419792E1;-4.736927986E0;-1.500625801E1;5.513846397E0
2.876086391E1;-5.447407246E0;-1.677018547E1;-2.806602955E0
2.877752990E1;-4.882974148E0;-1.538932991E1;-5.368997097E0
2.879419588E1;-2.734178305E0;-1.162384892E1;-5.122992992E0
2.881086188E1;9.696517140E-2;-8.562862396E0;-4.921281815E0
2.882752786E1;2.572569609E0;-5.592256546E0;-4.930858612E0
2.884419385E1;4.460397720E0;-2.579153776E0;-3.819948912E0
2.886085984E1;5.756259441E0;-1.043871999E0;-1.993172884E0
2.887752583E1;6.139930248E0;2.208651006E-1;2.082955539E-1
2.889419182E1;5.851428986E0;2.633023262E0;3.412335873E0
2.891085781E1;5.852027416E0;5.201403141E0;7.172429562E0
2.892752380E1;3.507505417E0;6.907870293E0;3.414730072E0
2.894418979E1;-3.107075214E0;7.641094685E0;-2.697068214E0
2.896085578E1;-8.914211273E0;7.949347973E0;-7.317877293E0
2.897752177E1;-1.109712505E1;5.796960831E0;-5.713762283E0
2.899418776E1;-9.410409927E0;3.056797028E0;2.734178305E0
2.901085375E1;-4.547187805E0;-2.765901566E0;5.850231647E0
2.902751974E1;1.879448295E-1;-3.706822872E0;-4.237737179E0
2.904418573E1;3.250128925E-1;-1.175852299E1;-7.202357292E0
2.906085172E1;3.734356165E0;-3.893570328E1;-5.443217754E0
2.907751771E1;7.849988937E0;-5.893207932E1;-8.104372978E0
2.909418370E1;1.793257117E0;-4.355531693E1;-4.984129429E0
2.911084969E1;-2.605489969E0;-2.169146729E1;5.680243492E0
2.912751568E1;-2.805405855E0;-1.432570553E1;5.259462357E0
2.914418167E1;-4.865017891E0;-1.278982544E1;-1.146224022E0
2.916084766E1;-9.942521095E0;-1.563712978E1;-9.302072525E0
2.917751365E1;-1.148438740E1;-1.616804314E1;-1.378701019E1
2.919417964E1;-1.018613148E1;-1.460582733E1;-1.300111389E1
2.921084562E1;-1.102769279E1;-1.197519875E1;-6.839036942E0
2.922751161E1;-1.117074680E1;-8.803479195E0;3.528454781E0
2.924417760E1;-7.692570210E0;-6.719326973E0;1.442147350E1
2.926084359E1;-6.345831394E0;-3.789422750E0;1.423472595E1
2.927750958E1;-6.227917194E0;-2.322375536E0;7.190984726E0
2.929417557E1;-7.350199223E0;-1.787870169E0;-2.003946781E0
2.931084156E1;-9.002797127E0;-1.370680481E-1;-8.060079575E0
2.932750755E1;-9.933543205E0;2.402581453E0;-5.961562157E0
2.934417354E1;-9.302670479E0;5.024830818E0;-8.619126081E-1
2.936083953E1;-7.160458565E0;5.998073578E0;2.621052265E0
2.937750552E1;-5.113416195E0;5.863998413E0;3.583521366E0
2.939417151E1;-2.485780001E0;4.668094635E0;2.424129248E0
2.941083750E1;-1.084573388E0;2.428318977E0;4.267664552E-1
2.942750349E1;-2.413953781E0;-1.124077678E0;6.703764796E-1
2.944416948E1;-5.671864033E0;-8.164826393E0;-9.804255962E-1
2.946083547E1;-4.774636745E0;-1.532528496E1;-6.010643482E0
2.947750146E1;-3.828328609E0;-3.959949875E1;-1.001554394E1
2.949416745E1;1.770512104E0;-7.129753113E1;-2.061407661E1
2.951083344E1;5.273229122E0;-5.517856979E1;-1.031781197E1
2.952749943E1;-2.222417831E0;-2.268745613E1;3.545812607E0
2.954416542E1;-1.240495777E1;-7.205349922E0;1.563952446E1
2.956083141E1;-1.066796398E1;-9.172186852E0;1.044530392E1
2.957749740E1;-6.901885033E0;-1.352723980E1;2.534262419E0
2.959416338E1;-4.760271549E0;-1.353921032E1;-1.358110905E0
2.961082938E1;-1.891419291E0;-1.162384892E1;-1.916558504E0
2.962749536E1;7.721300721E-1;-8.837596893E0;-1.668160081E0
2.964416135E1;2.852691412E0;-6.030993938E0;-2.145803213E0
2.966082734E1;4.240729809E0;-3.388393879E0;-2.870647907E0
2.967749333E1;5.309142113E0;-1.468842745E0;-2.897582531E0
2.969415932E1;5.243900299E0;7.380126715E-1;-1.710657120E0
2.971082531E1;4.683657169E0;1.710657120E0;-2.807201385E0
2.972749130E1;3.205836058E0;4.296993732E0;-1.547851443E0
2.974415729E1;5.841852427E-1;7.894880295E0;1.840542555E0
2.976082328E1;-4.402936935E0;9.296086311E0;-5.598840714E0
2.977748927E1;-8.733448982E0;8.369530678E0;-4.754884720E0
2.979415526E1;-1.392946529E1;8.088212013E0;6.414664745E0
2.981082125E1;-1.516367626E1;1.974617839E0;1.855027390E1
2.982748724E1;5.327098966E-1;-7.862558365E0;2.451662540E0
2.984415323E1;1.722628117E0;-5.956175327E0;-1.012148762E1
2.986081922E1;2.964620352E0;-1.468423748E1;-1.236485481E1
2.987748521E1;6.585251808E0;-3.732680130E1;-7.635109425E0
2.989415120E1;9.594164848E0;-5.206371307E1;-1.325968742E1
2.991081719E1;5.057750940E-1;-4.274368286E1;-1.181718063E1
2.992748318E1;-2.556408882E0;-2.714186668E1;-8.439561129E-1
2.994414917E1;-1.539471745E0;-1.944570541E1;7.102997780E0
2.996081516E1;-4.347870350E0;-1.782662773E1;9.895236015E0
2.997748115E1;-9.530718803E0;-1.910094070E1;6.404489517E0
2.999414714E1;-1.480753899E1;-1.589330959E1;-3.349488258E0
3.001081313E1;-1.951633453E1;-1.033876133E1;-1.432450867E1
3.002747911E1;-1.732923126E1;-7.251438618E0;-9.781511307E0
3.004414510E1;-8.948927879E0;-5.831676960E0;3.881599426E0
3.006081109E1;-5.771223068E0;-4.943428040E0;1.038006115E1
3.007747708E1;-4.855441093E0;-2.875436306E0;8.844779968E0
3.009414307E1;-3.902548790E0;-1.838148355E0;3.391985178E0
3.011080906E1;-3.151367903E0;-1.095945835E0;-2.534861088E0
3.012747505E1;-3.777451754E0;2.519897223E-1;-4.579509258E0
3.014414104E1;-5.037999153E0;2.416946650E0;-2.456450939E0
3.016080703E1;-5.586271286E0;4.204218388E0;-8.110358119E-1
3.017747302E1;-6.150704384E0;5.488108635E0;1.268926859E-1
3.019413901E1;-5.646724701E0;5.800552368E0;1.614889026E0
3.021080500E1;-4.174889088E0;5.411494255E0;3.200449228E0
3.022747099E1;-3.421912670E0;3.973177671E0;4.026448727E0
3.024413698E1;-7.098209381E0;-2.487575531E0;4.426878929E0
3.026080297E1;-6.856993675E0;-9.235034943E0;-7.254431248E-1
3.027746896E1;-8.575431824E0;-2.265633011E1;-7.741052628E0
3.029413495E1;-4.676474571E0;-5.809051514E1;-1.799661636E1
3.031080094E1;-1.304839998E-1;-6.589262390E1;-2.434843254E1
3.032746693E1;4.255095005E0;-4.058351517E1;-3.759495258E0
3.034413292E1;-3.956418335E-1;-1.840362930E1;9.608530045E0
3.036079891E1;-1.297477722E1;-7.502829552E0;1.897823906E1
3.037746490E1;-1.027232265E1;-1.120905399E1;7.671022415E0
3.039413089E1;-6.783371925E0;-1.397615242E1;2.597708702E-1
3.041079688E1;-4.134187698E0;-1.299991703E1;-3.186083794E0
3.042746286E1;-1.103128433E0;-1.082957268E1;-2.487575531E0
3.044412885E1;1.423951507E0;-7.489062786E0;-4.291606545E-1
3.046079484E1;3.403357744E0;-4.845265865E0;-3.824737072E-1
3.047746083E1;5.174468517E0;-2.541445017E0;-4.758476019E-1
3.049412682E1;6.013636112E0;-6.386532784E-1;3.076549172E-1
3.051079281E1;4.738125324E0;1.226429820E0;9.732429981E-1
3.052745880E1;2.432508945E0;2.463035107E0;8.505401611E-1
3.054412479E1;8.978256024E-3;4.469376087E0;-1.042076349E0
3.056079078E1;-2.513911724E0;6.721122742E0;-2.779069662E0
3.057745677E1;-7.751227856E0;7.833229542E0;-7.754220963E0
3.059412276E1;-1.020348930E1;6.381145954E0;-6.533177853E0
3.061078875E1;-9.477447510E0;4.122815132E0;1.235408068E0
3.062745474E1;-1.049139214E1;-2.551620483E0;1.769973373E1
3.064412073E1;5.937620401E-1;-6.591835976E0;1.279700756E0
3.066078672E1;1.245583415E0;-6.496067524E0;-6.496666431E0
3.067745271E1;2.685695648E0;-1.721610641E1;-9.443928719E0
3.069411870E1;6.157288074E0;-3.771585846E1;-6.194996834E0
3.071078469E1;7.471704960E0;-5.053620911E1;-1.048959637E1
3.072745068E1;2.286462545E0;-3.854006195E1;-7.101800919E0
3.074411667E1;1.441309452E0;-2.123537254E1;2.492962599E0
3.076078266E1;2.591124773E0;-1.658882523E1;6.966528416E0
3.077744865E1;-8.062474132E-1;-1.903150940E1;5.711966515E0
3.079411464E1;-8.052897453E0;-2.107735443E1;2.537255287E0
3.081078063E1;-1.335964584E1;-1.750161362E1;-9.476250648E0
3.082744661E1;-1.620754814E1;-1.393784523E1;-1.876754951E1
3.084411260E1;-1.518522453E1;-1.096903515E1;-1.472314358E1
3.086077859E1;-9.341576576E0;-7.879317760E0;-2.203862667E0
3.087744458E1;-7.855375767E0;-6.132747650E0;1.190277386E1
3.089411057E1;-9.542090416E0;-1.954865694E0;1.729930496E1
3.091077656E1;-9.493608475E0;1.582567334E0;1.089242077E1
3.092744255E1;-1.131140614E1;3.154360771E0;1.635239720E0
3.094410854E1;-1.279760647E1;4.130596638E0;-7.538144112E0
3.096077453E1;-1.133834076E1;4.288015366E0;-5.890334606E0
3.097744052E1;-9.352350235E0;5.054758549E0;-6.518214345E-1
3.099410651E1;-7.792528152E0;5.680841923E0;1.270123959E0
3.101077250E1;-4.944624901E0;5.173870087E0;2.609679937E0
3.102743849E1;-2.284667015E0;2.939481020E0;3.053205729E0
3.104410448E1;-1.590947032E0;-1.328781992E-1;3.485957623E0
3.106077047E1;-5.653308868E0;-7.943362713E0;1.431732655E0
3.107743646E1;-5.104437828E0;-1.335126591E1;-4.644751072E0
3.109410245E1;-4.719570160E0;-2.736812019E1;-9.671976089E0
3.111076844E1;1.902193308E0;-5.928522110E1;-1.556171227E1
3.112743443E1;1.279700756E0;-6.080913162E1;-1.812709999E1
3.114410042E1;2.394201607E-2;-3.170342064E1;-4.713584423E0
3.116076641E1;-6.033388138E0;-1.530074406E1;6.290764809E0
3.117743240E1;-1.167053604E1;-9.489418030E0;1.524388218E1
3.119409838E1;-5.934627533E0;-1.448671627E1;6.114192486E0
3.121076438E1;-4.435857296E0;-1.458188534E1;-1.077390742E-2
3.122743036E1;-2.288856745E0;-1.243727970E1;-1.878251195E0
3.124409635E1;-2.681505978E-1;-9.399636269E0;-9.690531492E-1
3.126076234E1;1.594538331E0;-6.657676220E0;-7.044938207E-1
3.127742833E1;2.907757998E0;-4.324526787E0;-1.156997919E0
3.129409432E1;4.526238441E0;-2.273294449E0;-1.386242747E0
3.131076031E1;5.483919144E0;-3.226186931E-1;1.119289324E-1
3.132742630E1;4.630385876E0;9.870096445E-1;9.026140571E-1
3.134409229E1;2.234388828E0;2.099116325E0;7.846996188E-1
3.136075828E1;-3.591302410E-2;4.047996521E0;7.176619768E-1
3.137742427E1;-1.831564307E0;6.854001045E0;-7.404068708E-1
3.139409026E1;-6.495469093E0;8.695740700E0;-7.026383400E0
3.141075625E1;-9.537302017E0;7.049128532E0;-8.382100105E0
3.142742224E1;-8.590993881E0;4.132990837E0;-2.136825085E0
3.144408823E1;-6.957550049E0;-7.457938194E-1;7.535749912E0
3.146075422E1;-1.854309201E0;-5.941211700E0;3.025672436E0
3.147742021E1;-1.550245643E0;-8.983044624E0;-3.616441727E0
3.149408620E1;1.092953086E0;-3.116173172E1;-4.246715069E0
3.151075219E1;5.489904404E0;-5.062659073E1;-1.106420422E1
3.152741818E1;2.597110271E0;-4.515344620E1;-1.258452225E1
3.154408417E1;4.472967148E0;-2.852392006E1;2.412756681E0
3.156075016E1;2.212242365E0;-1.706826401E1;4.299986362E0
3.157741615E1;-9.151836038E-1;-1.383908463E1;3.770269156E0
3.159408214E1;-6.354211330E0;-1.781764984E1;-6.260837317E-1
3.161074812E1;-1.195724201E1;-2.079663467E1;-1.053029728E1
3.162741411E1;-1.484943771E1;-1.659241676E1;-1.581968784E1
3.164408010E1;-1.401864910E1;-1.260247898E1;-1.256357384E1
3.166074609E1;-1.091696167E1;-8.689755440E0;-6.801927090E0
3.167741208E1;-8.206725121E0;-7.454945564E0;7.990049839E0
3.169407807E1;-7.633313656E0;-4.648941040E0;1.547372532E1
3.171074406E1;-6.379949093E0;-1.654991984E0;1.208533192E1
3.172741005E1;-4.821922302E0;-1.537077546E0;4.751293182E0
3.174407604E1;-4.882974148E0;-1.343147159E0;-3.378218651E0
3.176074203E1;-6.356605530E0;4.752490520E-1;-6.099228859E0
3.177740802E1;-8.719682693E0;3.302202702E0;-1.942894697E0
3.179407401E1;-9.185355186E0;4.875791550E0;6.093243361E-1
3.181074000E1;-8.353369713E0;5.452195644E0;1.056441545E0
3.182740599E1;-7.091625214E0;5.845443249E0;2.092532396E0
3.184407198E1;-4.120420933E0;4.082712650E0;3.165134668E0
3.186073797E1;-1.539471745E0;1.458068848E0;1.668758631E0
3.187740396E1;-8.499416113E-1;-3.872621357E-1;4.094084799E-1
3.189406995E1;-3.844489336E0;-5.886145115E0;-2.361880064E0
3.191073594E1;-3.456628799E0;-1.160050583E1;-6.183624268E0
3.192740193E1;-3.448847532E0;-3.745130157E1;-1.397555351E1
3.194406792E1;-1.440112352E0;-6.801268768E1;-2.210027695E1
3.196073391E1;3.063979626E0;-5.312374496E1;-2.087025642E1
3.197739990E1;-4.540603638E0;-2.445258141E1;1.345541358E0
3.199406588E1;-1.491587639E1;-1.030763721E1;2.453877258E1
3.201073188E1;-1.012807178E1;-1.129644203E1;1.446157646E1
3.202739786E1;-9.397241592E0;-1.454597282E1;4.846462727E0
3.204406385E1;-7.795520782E0;-1.541446877E1;-1.319803715E0
3.206072984E1;-4.405331135E0;-1.435742950E1;-6.107608318E0
3.207739583E1;-9.588778019E-1;-1.072482681E1;-6.335656166E0
3.209406182E1;2.619256735E0;-7.067683220E0;-4.986523628E0
3.211072781E1;5.708375454E0;-3.828328609E0;-2.679111719E0
3.212739380E1;8.177994728E0;-2.171540976E0;-2.334346622E-1
3.214405979E1;8.508394241E0;-9.923965931E-1;1.347935557E0
3.216072578E1;6.389525890E0;3.914519846E-1;1.219247222E0
3.217739177E1;3.428496838E0;2.244564056E0;1.763928056E0
3.219405776E1;3.878606856E-1;4.616619587E0;1.821388960E0
3.221072375E1;-2.362478495E0;7.198765755E0;-9.690531492E-1
3.222738974E1;-7.952939510E0;7.946953773E0;-7.019200802E0
3.224405573E1;-1.053209305E1;5.817311764E0;-7.957129478E0
3.226072172E1;-8.724471092E0;2.920926094E0;-2.680308819E0
3.227738771E1;-6.403891087E0;-3.058592677E-1;5.428253651E0
3.229405370E1;-2.415749550E0;-6.258443356E0;2.473809004E0
3.231071969E1;-1.374870300E0;-9.424176216E0;-3.703231573E0
3.232738568E1;-3.327940404E-1;-2.953966141E1;-5.649717331E0
3.234405167E1;8.888474107E-1;-5.026207352E1;-1.088104820E1
3.236071766E1;5.152322292E0;-4.671985245E1;-1.148618221E0
3.237738365E1;7.138312340E0;-2.469678879E1;5.863998413E0
3.239404964E1;3.989338636E0;-1.503738213E1;4.490923882E0
3.241071562E1;1.315613866E0;-1.270123959E1;2.938882709E-1
3.242738161E1;-3.564367771E0;-1.696950340E1;-6.577470779E0
3.244404760E1;-9.591172218E0;-1.983236885E1;-1.593281364E1
3.246071359E1;-1.419881344E1;-1.684799767E1;-1.782842255E1
3.247737958E1;-1.325070953E1;-1.402822590E1;-8.577227592E0
3.249404557E1;-1.142153931E1;-1.091217327E1;-6.088454723E0
3.251071156E1;-9.379883766E0;-1.050455952E1;8.089408875E0
3.252737755E1;-6.332065105E0;-6.749853134E0;1.629792976E1
3.254404354E1;-5.547964096E0;-2.618658066E0;1.311244392E1
3.256070953E1;-5.920860767E0;-1.277306557E0;4.592677593E0
3.257737552E1;-6.535572052E0;-8.804676533E-1;-6.565499783E0
3.259404151E1;-7.535151482E0;6.775590777E-1;-8.921992302E0
3.261070750E1;-8.704120636E0;3.717596769E0;-2.553416014E0
3.262737349E1;-9.479243279E0;6.324882507E0;1.653196216E0
3.264403948E1;-8.960299492E0;7.510012150E0;2.688688517E0
3.266070547E1;-6.833650112E0;7.156867504E0;2.442684174E0
3.267737146E1;-3.348291159E0;4.202422619E0;2.391807556E0
3.269403745E1;-1.850717902E0;1.635838270E0;8.277952671E-1
3.271070344E1;-1.007958889E0;6.153098345E-1;-1.933317930E-1
3.272736943E1;-4.556764603E0;-4.673481941E0;-1.266532660E0
3.274403542E1;-4.996698856E0;-1.198657036E1;-5.555745125E0
3.276070141E1;-5.530605793E0;-3.922420502E1;-1.342608452E1
3.277736740E1;-7.541735172E-1;-7.575373840E1;-2.398810577E1
3.279403338E1;-8.559271097E-1;-6.038475800E1;-1.894591713E1
3.281069938E1;-5.995679379E0;-2.528696060E1;4.654926777E0
3.282736536E1;-1.270243740E1;-9.080010414E0;2.891297913E1
3.284403135E1;-5.491700172E0;-1.081041908E1;1.035671806E1
3.286069734E1;-4.241926670E0;-1.412160015E1;2.381632090E0
3.287736333E1;-4.135983467E0;-1.403840160E1;-7.284358740E-1
3.289402932E1;-2.306214809E0;-1.194946098E1;-1.825578809E0
3.291069531E1;2.513911724E-1;-8.861538887E0;-1.793855667E0
3.292736130E1;2.415749550E0;-6.086659431E0;-2.829946518E0
3.294402729E1;4.422090530E0;-3.432686806E0;-3.343502760E0
3.296069328E1;6.009446144E0;-1.853710651E0;-2.346317768E0
3.297735927E1;6.444592476E0;-6.841431260E-1;-8.888474107E-1
3.299402526E1;5.161300182E0;7.745242715E-1;-1.179144308E-1
3.301069125E1;2.538452387E0;2.670133352E0;-3.471592441E-2
3.302735724E1;-3.076549172E-1;6.016628742E0;-1.112106681E0
3.304402323E1;-4.598662853E0;8.383895874E0;-3.570353270E0
3.306068922E1;-8.706514359E0;7.989450932E0;-6.128557682E0
3.307735521E1;-9.442132950E0;5.732915878E0;-2.337339401E0
3.309402120E1;-9.833584785E0;2.342726469E0;4.975151062E0
3.311068719E1;-7.280767441E0;-5.095459938E0;1.051413631E1
3.312735318E1;-9.433154464E-1;-5.732317448E0;-2.916137695E0
3.314401917E1;-4.453215301E-1;-1.429817295E1;-6.316502571E0
3.316068516E1;2.624045134E0;-3.645950317E1;-6.892308235E0
3.317735115E1;6.596025467E0;-4.973415375E1;-1.233552551E1
3.319401714E1;4.282029629E0;-4.037641525E1;-4.037222385E0
3.321068312E1;4.164115429E0;-2.288617325E1;4.058770657E0
3.322734911E1;2.380434990E0;-1.511579227E1;3.934870481E0
3.324401510E1;-1.014542937E0;-1.660318947E1;1.777694821E0
3.326068109E1;-8.312667847E0;-2.237860298E1;-4.709394932E0
3.327734708E1;-1.408389187E1;-2.053866005E1;-1.310585976E1
3.329401307E1;-1.592263794E1;-1.512117958E1;-1.770931053E1
3.331067906E1;-1.499488544E1;-1.084752941E1;-1.185429096E1
3.332734505E1;-1.077510452E1;-7.783549786E0;-5.129576921E-1
3.334401104E1;-7.764396191E0;-7.512406349E0;1.270064163E1
3.336067703E1;-6.964732647E0;-4.303577423E0;1.678814316E1
3.337734302E1;-7.010821342E0;-1.456871748E0;9.828796387E0
3.339400901E1;-7.800907612E0;-5.967547894E-1;5.201402903E-1
3.341067500E1;-9.490615845E0;9.319429994E-1;-6.642114162E0
3.342734099E1;-1.063983250E1;3.376422882E0;-3.098097086E0
3.344400698E1;-1.105702209E1;5.582081318E0;6.386532784E-1
3.346067297E1;-9.922768593E0;6.306327343E0;1.382052898E0
3.347733896E1;-6.250063419E0;5.213972569E0;1.446696401E0
3.349400495E1;-1.608304977E0;2.754528999E0;1.875856996E0
3.351067094E1;5.231330991E-1;8.038532138E-1;1.268926859E0
3.352733693E1;1.814206362E0;-4.596867263E-1;7.416039705E-1
3.354400292E1;-1.692102075E0;-5.189432144E0;-1.158195019E0
3.356066891E1;-3.394379377E0;-9.725846291E0;-4.888361454E0
3.357733490E1;-5.290587425E0;-2.141793060E1;-9.611522675E0
3.359400088E1;-5.747281075E0;-5.471469116E1;-1.466687965E1
3.361066688E1;-3.597288132E0;-6.733273315E1;-2.354517746E1
3.362733286E1;-4.823119164E0;-3.387675858E1;-4.933252811E0
3.364399885E1;-8.636484146E0;-1.476145077E1;1.611178017E1
3.366066484E1;-3.742735863E0;-1.019151783E1;1.480574322E1
3.367733083E1;-2.687491417E0;-1.412219906E1;2.084152699E0
3.369399682E1;-3.521272182E0;-1.492066479E1;-2.889801502E0
3.371066281E1;-1.356913805E0;-1.271620369E1;-3.822343111E0
3.372732880E1;8.481459618E-1;-9.101557732E0;-2.440888643E0
3.374399479E1;3.011905670E0;-6.115389824E0;-1.866878748E0
3.376066078E1;4.279635429E0;-3.441066504E0;-1.980004787E0
3.377732677E1;5.462969780E0;-1.891419291E0;-1.576581836E0
3.379399276E1;6.339846134E0;-5.853823423E-1;1.412578970E-1
3.381065875E1;6.284181118E0;9.612720013E-1;3.204040527E0
3.382732474E1;4.062361717E0;2.783858061E0;4.790797710E0
3.384399073E1;5.171475410E-1;5.398326397E0;4.386177540E0
3.386065672E1;-3.480570793E0;7.543530941E0;6.033388376E-1
3.387732271E1;-8.530540466E0;8.112154007E0;-7.156269073E0
3.389398870E1;-1.128028107E1;6.332663536E0;-1.025496483E1
3.391065469E1;-8.593388557E0;2.187701702E0;-5.919064999E0
3.392732068E1;-4.036025524E0;-1.200692177E0;-6.452373862E-1
3.394398667E1;-1.985391736E0;-6.502053261E0;1.417367458E0
3.396065266E1;-2.228403330E0;-1.517504883E1;-1.205480576E0
3.397731865E1;-4.399944305E0;-4.367861938E1;-6.426635742E0
3.399398464E1;-8.068459630E-1;-5.276521301E1;-8.254010081E-1
3.401065063E1;8.902838707E0;-3.069007492E1;7.718307495E0
3.402731661E1;7.023390770E0;-1.728613663E1;4.576516628E0
3.404398260E1;3.266289711E0;-1.367029285E1;-4.477157295E-1
3.406064859E1;-3.166331649E-1;-1.398932076E1;-6.644508362E0
3.407731458E1;-3.195660830E0;-1.678574753E1;-9.956287384E0
3.409398057E1;-6.216544628E0;-2.008495712E1;-1.597890186E1
3.411064656E1;-8.915408134E0;-2.046563530E1;-1.771170616E1
3.412731255E1;-1.074517727E1;-1.710238075E1;-9.366117477E0
3.414397854E1;-1.066557026E1;-1.318247414E1;-7.222707748E0
3.416064453E1;-1.111508179E1;-1.126651478E1;4.320935726E0
3.417731052E1;-9.134477615E0;-8.194753647E0;1.841859436E1
