"Time (s)";"Gyroscope x (rad/s)";"Gyroscope y (rad/s)";"Gyroscope z (rad/s)"
7.869653200E-2;3.306311965E-1;-5.386239290E-1;-1.294295341E-1
9.536252200E-2;3.209106624E-2;-2.328932583E-1;-3.422159329E-2
1.120285110E-1;-2.395511568E-1;1.597895473E-2;1.245026886E-1
1.286945010E-1;-3.984085917E-1;2.215748429E-1;2.328932583E-1
1.453604900E-1;-4.041343927E-1;5.231776237E-1;3.262369931E-1
1.620264800E-1;-2.910832763E-1;6.966823936E-1;3.912180662E-1
1.786924700E-1;-1.027979404E-1;6.996119022E-1;4.217112362E-1
1.953584590E-1;1.082574204E-1;6.079992056E-1;5.042691827E-1
2.120244490E-1;2.418148518E-1;3.913512230E-1;6.823013425E-1
2.286904380E-1;2.676474750E-1;2.302301079E-1;8.795083165E-1
2.453564280E-1;2.350237966E-1;2.073269337E-1;9.085367322E-1
2.620224170E-1;1.850895584E-1;2.185122073E-1;6.467481852E-1
2.786884070E-1;7.097318769E-2;4.014712274E-1;4.139880836E-1
2.953543970E-1;-1.194426864E-1;5.752423406E-1;2.431464195E-1
3.120203860E-1;-3.723096550E-1;6.083986759E-1;1.696432382E-1
3.286863760E-1;-6.242445111E-1;5.572660565E-1;2.190448344E-1
3.453523650E-1;-7.671229839E-1;5.977460742E-1;2.488722205E-1
3.620183550E-1;-6.740455627E-1;9.591367245E-1;1.354216337E-1
3.786843450E-1;-2.954775095E-1;1.603754401E0;-1.427453309E-1
3.953503340E-1;1.003078818E0;1.732385010E-1;-2.404832691E-1
4.120163240E-1;2.705769539E0;-1.996037811E-1;-5.113265663E-2
4.286823130E-1;3.218028307E0;2.849580161E-2;-2.318280041E-1
4.453483030E-1;2.749445438E0;3.400854170E-1;-8.305061460E-1
4.620142920E-1;1.681252360E0;1.321459532E0;-1.194027424E0
4.786802820E-1;8.496809006E-1;2.137717724E0;-1.085370541E0
4.953462720E-1;6.336987019E-1;2.375671148E0;-5.918871164E-1
5.120122610E-1;7.803056240E-1;1.919471979E0;-1.157142594E-1
5.286782510E-1;5.167860389E-1;2.126665592E0;-5.552686751E-2
5.453442400E-1;1.158474237E-1;1.958353996E0;-6.016076207E-1
5.620102300E-1;-3.892207146E-1;1.327318549E0;-1.663808703E0
5.786762200E-1;-9.487504363E-1;1.187103152E0;-3.003643990E0
5.953422090E-1;-1.561809659E0;1.941842437E0;-4.507396698E0
6.120081990E-1;-2.226667404E0;2.196041107E0;-5.767204285E0
6.286741880E-1;-2.430665255E0;2.639190674E0;-6.386388779E0
6.453401780E-1;-2.286987782E0;3.103778839E0;-6.314616680E0
6.620061670E-1;-2.007755756E0;3.405914068E0;-5.528451920E0
6.786721570E-1;-1.515337586E0;3.423491001E0;-4.795949936E0
6.953381470E-1;-1.104811549E0;3.343196869E0;-4.102197170E0
7.120041360E-1;-1.047420502E0;2.575807571E0;-3.310173512E0
7.286701260E-1;-1.030243158E0;2.134655237E0;-2.527870655E0
7.453361150E-1;-6.442182064E-1;1.624527097E0;-2.120540380E0
7.620021050E-1;-2.488722205E-1;1.754356027E0;-2.250768900E0
7.786680950E-1;-3.150517344E-1;2.516552210E0;-2.845851898E0
7.953340840E-1;-8.374303579E-1;2.868222237E0;-2.838261843E0
8.119994270E-1;-1.244494200E0;1.791640282E0;-2.365018368E0
8.286653640E-1;-1.574725986E0;3.627222776E-1;-1.274987459E0
8.453313540E-1;-2.164482594E0;-4.414186180E-1;1.254348010E-1
8.619973430E-1;-2.728007078E0;-6.751108170E-1;8.487488031E-1
8.786633330E-1;-2.722680807E0;-5.560676455E-1;6.540718675E-1
8.953293230E-1;-2.476205349E0;-6.138581783E-2;5.978792161E-2
9.119953120E-1;-2.176333666E0;5.816339254E-1;-5.696497560E-1
9.286613020E-1;-1.913612962E0;6.579334736E-1;-7.462171912E-1
9.453272910E-1;-2.117610931E0;5.286371112E-1;-2.528669536E-1
9.619932810E-1;-2.752774477E0;3.466101587E-1;1.039564133E0
9.786592710E-1;-3.241197824E0;-8.335687965E-2;2.535727024E0
9.953252600E-1;-2.185654640E0;-7.511440516E-1;3.488738537E0
1.011991250E0;3.838943839E-1;-4.102596641E-1;2.694983959E0
1.028657239E0;6.511424184E-1;-2.464753687E-1;1.765807629E0
1.045323229E0;4.926844239E-1;-6.885597706E-1;1.484844327E0
1.061989218E0;1.700427085E-1;-1.791107655E0;1.706685543E0
1.078655208E0;-5.928192139E-1;-2.075799465E0;2.183124781E0
1.095321198E0;-1.038765192E0;-1.675260186E0;2.590854406E0
1.111987187E0;-1.675393343E0;-9.797762632E-1;3.501787901E0
1.128653177E0;-1.802426100E0;-3.435475230E-1;2.033055544E0
1.145319166E0;-1.190964699E0;2.741722167E-1;6.234455705E-1
1.161985156E0;-9.392961860E-1;1.043958366E-1;1.740374416E-1
1.178651146E0;-7.925561666E-1;1.013332009E-1;3.077280223E-1
1.195317135E0;-8.086682558E-1;-2.793653905E-1;4.390217662E-1
1.211983125E0;-1.937581420E0;-1.323590130E-1;-1.810948253E-1
1.228649114E0;-1.851960897E0;4.643217921E-1;-8.510124683E-1
1.245315104E0;-1.463139653E0;-5.970802903E-1;-1.869404554E0
1.261981093E0;-1.490836501E0;-1.649161220E0;-2.900846004E0
1.278647083E0;-1.490703344E0;-5.390233994E-1;-3.441467285E0
1.295313073E0;-1.053812027E0;5.060002208E-1;-3.722430706E0
1.311979062E0;-1.087234735E0;9.531446695E-1;-4.517916203E0
1.328645052E0;-7.303713560E-1;1.452353835E0;-5.223120689E0
1.345311041E0;-4.532696903E-1;1.407745957E0;-5.229512215E0
1.361977031E0;-4.416849315E-1;1.665806025E-1;-4.597544670E0
1.378643021E0;-3.382211924E-1;-1.564605951E0;-2.346243143E0
1.395309010E0;3.914843872E-2;-5.687175989E-1;1.438105945E-2
1.411975000E0;5.779055133E-2;8.820382953E-1;1.478053331E-1
1.428640989E0;8.082687855E-2;6.957502961E-1;3.861580743E-3
1.445306979E0;-1.238369010E-2;-3.049317189E-2;8.921582997E-2
1.461972968E0;-5.077312589E-1;3.467433155E-1;2.788327634E-1
1.478638958E0;-9.034767151E-1;8.560724854E-1;2.314285189E-1
1.495304948E0;-7.289066315E-1;-6.764423847E-2;9.387636185E-2
1.511970937E0;-5.961481929E-1;-1.044890523E0;-3.998733461E-1
1.528636927E0;-9.435572624E-1;-1.613208652E0;-3.078611791E-1
1.545302916E0;-9.837709665E-1;-1.741040230E0;-7.953524590E-1
1.561968906E0;-4.760396779E-1;-1.685380220E0;-1.452087522E0
1.578634896E0;1.898832470E-1;-1.728656530E0;-2.645182848E0
1.595300885E0;9.076046348E-1;-1.664474487E0;-2.793653965E0
1.611966875E0;1.447693229E0;-1.386440635E0;-8.684561849E-1
1.628632864E0;9.628651738E-1;-9.157272577E-1;-9.281109273E-2
1.645298854E0;1.635179669E-1;-1.314135909E0;-4.231759906E-1
1.661964843E0;2.573943138E-1;-1.435442805E0;-8.362319320E-2
1.678630833E0;1.009736776E0;-9.157272577E-1;-5.712476373E-2
1.695296823E0;1.253149509E0;-3.263701499E-1;1.921469271E-1
1.711962812E0;1.270193696E0;2.508696020E-1;2.777675092E-1
1.728628802E0;1.025715709E0;8.878972530E-1;3.430148959E-1
1.745294791E0;8.138614297E-1;1.421594381E0;4.291680753E-1
1.761960781E0;4.372907281E-1;2.087517262E0;2.687127590E-1
1.778626771E0;8.961530030E-2;3.018025160E0;4.155859649E-1
1.795292760E0;-1.344895363E-1;2.522810698E0;7.145255804E-1
1.811958750E0;-6.431528926E-2;1.241564751E0;6.227797270E-1
1.828624739E0;3.062633052E-2;-1.866874546E-1;-3.135869801E-1
1.845290729E0;2.330264263E-2;-1.158474207E0;-1.522661209E0
1.861956718E0;-1.162468940E-1;-1.546762824E0;-2.123070478E0
1.878622708E0;-4.139880836E-1;-1.916009784E0;-1.993640900E0
1.895288698E0;-5.009402037E-1;-2.080726147E0;-1.268728971E0
1.911954687E0;-4.518049359E-1;-2.032123566E0;-5.197154880E-1
1.928620677E0;-4.668518007E-1;-1.318530083E0;-4.158523083E-1
1.945286666E0;-4.392880797E-1;-4.026696682E-1;-7.644598484E-1
1.961952656E0;-2.366216928E-1;4.530033767E-1;-1.227849483E0
1.978618646E0;1.391500682E-1;1.336506367E0;-1.175385237E0
1.995284635E0;8.375635743E-2;2.003095150E0;-4.807002246E-1
2.011950625E0;1.563274413E-1;1.998301387E0;-2.075932473E-1
2.028616614E0;3.795001656E-2;6.307692528E-1;-1.965011954E0
2.045282604E0;-1.422126889E-1;9.720530361E-3;-2.972351789E0
2.061948593E0;-4.998749495E-1;2.009353489E-1;-3.025348663E0
2.078614583E0;-9.434241056E-1;6.127929091E-1;-2.373939991E0
2.095280573E0;-1.272590518E0;3.660512269E-1;-1.519199133E0
2.111946562E0;-1.700560212E0;-8.352998495E-1;-1.085370541E0
2.128612552E0;-1.399090648E0;-7.077345252E-1;-5.597960353E-1
2.145278541E0;-5.073317885E-1;1.033971548E0;1.680453420E-1
2.161944531E0;1.266332120E-1;2.085919380E0;2.221074700E-1
2.178610521E0;5.868270993E-1;1.508280158E0;-2.623211779E-2
2.195276510E0;1.029577255E0;5.510076284E-1;-1.268462658E0
2.211942500E0;8.980172276E-1;9.198551774E-1;-2.338919401E0
2.228608489E0;-9.619330764E-1;1.298023701E0;-2.150501013E0
2.245274479E0;-2.004559755E0;2.213085145E-1;-2.308692694E0
2.261940468E0;-2.095906258E0;3.783017397E-1;-1.676192284E0
2.278606458E0;-9.146620035E-1;8.612656593E-1;-7.752456069E-1
2.295272448E0;1.095889956E-1;1.235306382E0;-6.163882017E-1
2.311938437E0;3.924165070E-1;1.613341808E0;-8.512787819E-1
2.328604427E0;2.102564126E-1;6.001428962E-1;-1.009337306E0
2.345270416E0;1.190432087E-1;-5.316997170E-1;-9.860346317E-1
2.361936406E0;-9.560741484E-2;-4.981439114E-1;-8.843019605E-1
2.378602396E0;-2.189116776E-1;-2.764359117E-1;-4.347607195E-1
2.395268385E0;4.660528526E-2;-4.565986395E-1;2.551306486E-1
2.411934375E0;5.326318205E-4;6.719150543E-1;8.460856676E-1
2.428600364E0;-5.789707899E-1;1.576190710E0;9.736509919E-1
2.445266354E0;-7.412903309E-1;1.440369606E0;4.759065211E-1
2.461932343E0;-5.597960353E-1;5.173186660E-1;-1.407479644E-1
2.478598333E0;-1.507348120E-1;-4.198470414E-1;-5.954823494E-1
2.495264323E0;5.632581562E-2;-4.287686199E-2;-6.530066133E-1
2.511930312E0;-5.858949944E-2;9.974862337E-1;-4.986765385E-1
2.528596302E0;-3.101248741E-1;1.420262694E0;-3.596596420E-1
2.545262291E0;-4.565986395E-1;9.135967493E-1;-3.422159553E-1
2.561928281E0;-4.372907281E-1;-6.098634377E-2;-3.210438192E-1
2.578594271E0;-2.085253596E-1;-8.752472401E-1;-1.861548275E-1
2.595260260E0;1.266332120E-1;-8.832367063E-1;1.571263820E-1
2.611926250E0;5.239765644E-1;-3.906854391E-1;6.466150284E-1
2.628592239E0;8.723177910E-1;2.440785319E-1;1.241831064E0
2.645258229E0;1.035036802E0;3.290333152E-1;1.781786561E0
2.661924218E0;1.070057273E0;-2.447443157E-1;2.231993675E0
2.678590208E0;1.182575822E0;-9.579383135E-1;2.778873444E0
2.695256198E0;1.457413793E0;-1.024650455E0;3.756519079E0
2.711922187E0;1.647962809E0;-4.964128435E-1;4.850811005E0
2.728588177E0;1.577122808E0;5.593965650E-1;5.301018238E0
2.745254166E0;1.508413315E0;1.895237207E0;4.364518166E0
2.761920156E0;1.380182147E0;2.057556629E0;2.149435759E0
2.778586146E0;6.621944904E-1;-7.044056058E-2;2.535327375E-1
2.795252135E0;-3.169159293E-1;-2.067943096E0;2.010685056E-1
2.811918125E0;-6.303697824E-1;-1.954492450E0;9.206541181E-1
2.828584114E0;6.631266326E-2;-5.010733604E-1;2.040512562E0
2.845250104E0;3.776359558E-1;2.608564198E-1;2.167278767E0
2.861916093E0;1.782985032E-1;-1.536642760E-1;1.471395373E0
2.878582083E0;-2.450106442E-1;-1.378051639E0;9.299751520E-1
2.895248073E0;-6.235787272E-1;-1.892041326E0;5.063996911E-1
2.911914062E0;-9.060067534E-1;-1.460742712E0;2.190448344E-1
2.928580052E0;-1.004943132E0;-7.346324325E-1;7.443529367E-2
2.945246041E0;-9.492830634E-1;-2.320943177E-1;-2.969422378E-2
2.961912031E0;-8.081356287E-1;4.287686199E-2;-1.745700836E-1
2.978578021E0;-5.763076544E-1;1.374190152E-1;-3.928159773E-1
2.995244010E0;-3.327617347E-1;2.613890767E-1;-5.416865349E-1
3.011910000E0;-2.588590682E-1;3.370227814E-1;-5.993439555E-1
3.028575989E0;-2.830938101E-1;3.287670016E-1;-6.675208211E-1
3.045241979E0;-2.944122255E-1;1.410142779E-1;-6.295707822E-1
3.061907968E0;-3.186469972E-1;-2.149169445E-1;-6.287718415E-1
3.078573958E0;-4.773712754E-1;-4.547344148E-1;-6.998782158E-1
3.095239948E0;-7.463503480E-1;-2.997385561E-1;-6.424871087E-1
3.111905937E0;-8.205193281E-1;1.182442605E-1;-4.466117918E-1
3.128571927E0;-5.787044764E-1;5.307676196E-1;-2.683132887E-1
3.145237916E0;-2.635195851E-1;7.014760971E-1;-1.332911104E-1
3.161903906E0;-5.193160102E-2;6.567350626E-1;-9.307741374E-2
3.178569896E0;6.657897960E-3;4.700475931E-1;-1.009337306E-1
3.195235885E0;4.860265180E-2;3.424822688E-1;-9.454214573E-2
3.211901875E0;1.462074369E-1;3.042659163E-1;-8.535424620E-2
3.228567864E0;2.348906398E-1;3.279680312E-1;-1.105211005E-1
3.245233854E0;1.436774284E-1;5.819002539E-2;-1.778990328E-1
3.261899843E0;-1.420795321E-1;-4.182491302E-1;-2.519348562E-1
3.278565833E0;-5.752423406E-1;-7.467498183E-1;-2.123869359E-1
3.295231823E0;-7.611308694E-1;-3.910849094E-1;4.793686420E-2
3.311897812E0;-6.829671264E-1;2.549974918E-1;2.998717129E-1
3.328563802E0;-4.426170290E-1;5.566002727E-1;2.600574791E-1
3.345229791E0;7.510108501E-2;6.736460924E-1;1.818937659E-1
3.361895781E0;5.254412889E-1;4.194475710E-1;9.201214463E-2
3.378561771E0;4.740423262E-1;-4.025365114E-1;-2.972085476E-1
3.395227760E0;1.041295230E-1;-1.139033198E0;-6.684529185E-1
3.411893750E0;-2.715090811E-1;-1.477787018E0;-9.006804228E-1
3.428559739E0;-3.845601678E-1;-1.221724272E0;-9.474188685E-1
3.445225729E0;-1.982721984E-1;-3.334275186E-1;-8.681898713E-1
3.461891718E0;4.447475821E-2;3.976096511E-1;-6.783066392E-1
3.478557708E0;1.043958366E-1;4.081291258E-1;-5.179844499E-1
3.495223698E0;2.703106403E-2;2.085253596E-1;-5.368928909E-1
3.511889687E0;-1.472726911E-1;5.651223660E-1;-5.990776420E-1
3.528555677E0;-3.422159553E-1;1.454351187E0;-5.909550190E-1
3.545221666E0;-3.679154217E-1;1.454484344E0;-5.990776420E-1
3.561887656E0;-1.487374306E-1;5.952160358E-1;-6.090644598E-1
3.578553646E0;2.416816950E-1;-1.651158556E-2;-6.002760530E-1
3.595219635E0;5.339633822E-1;2.372874767E-1;-5.587307811E-1
3.611885625E0;5.374255180E-1;4.593949318E-1;-5.218459964E-1
3.628551614E0;2.491385341E-1;2.954775095E-1;-5.484775901E-1
3.645217604E0;-1.416800618E-1;6.258423906E-3;-6.362286806E-1
3.661883593E0;-4.283691347E-1;1.605884880E-1;-6.920219064E-1
3.678549583E0;-5.627255440E-1;4.704470634E-1;-6.448839903E-1
3.695215573E0;-5.274386406E-1;6.367613673E-1;-5.928192139E-1
3.711881562E0;-3.713775277E-1;8.301066756E-1;-5.807018280E-1
3.728547552E0;-1.763011366E-1;9.327715039E-1;-5.764408112E-1
3.745213541E0;-5.179844424E-2;8.246471882E-1;-6.157223582E-1
3.761879531E0;-2.822948620E-2;5.693834424E-1;-6.615287066E-1
3.778545521E0;-8.655267209E-2;3.143859208E-1;-6.396908164E-1
3.795211510E0;-1.655153334E-1;2.864227593E-1;-5.579318404E-1
3.811877500E0;-2.125200927E-1;3.771033287E-1;-4.833633900E-1
3.828543489E0;-2.246374637E-1;4.115912318E-1;-4.221107066E-1
3.845209479E0;-2.141179889E-1;3.330280483E-1;-2.885532975E-1
3.861875468E0;-1.659148186E-1;2.560627460E-1;-1.029310971E-1
3.878541458E0;-3.608580679E-2;2.197106332E-1;9.161267430E-2
3.895207448E0;2.486059070E-1;2.396843163E-3;2.858901322E-1
3.911873437E0;6.290381551E-1;-4.404865205E-1;6.070671082E-1
3.928539427E0;1.025715709E0;-8.291745782E-1;1.173387885E0
3.945205416E0;1.342365384E0;-5.474123359E-1;1.826527715E0
3.961871406E0;1.490703344E0;3.205111921E-1;2.243445158E0
3.978537396E0;1.571796536E0;1.287903786E0;2.338386774E0
3.995203385E0;1.613075495E0;2.441850662E0;2.253032684E0
4.011869375E0;1.809350252E0;3.448258400E0;2.204163551E0
4.028535364E0;2.143709898E0;3.106441975E0;2.049700499E0
4.045201354E0;1.966343522E0;1.098020554E0;1.461941242E0
4.061867343E0;1.226784229E0;-8.291745782E-1;6.753771305E-1
4.078533333E0;4.038680792E-1;-2.202965260E0;6.950845569E-2
4.095199323E0;-9.680583328E-2;-2.493382692E0;9.986846708E-3
4.111865312E0;3.102580272E-2;-1.077780485E0;6.665887237E-1
4.128531302E0;4.639223218E-1;8.483493328E-1;1.621064901E0
4.145197291E0;5.508744717E-1;1.480982780E0;1.788311362E0
4.161863281E0;1.962748319E-1;9.723193645E-1;1.297624230E0
4.178529271E0;-4.512723088E-1;-2.515353858E-1;8.568714261E-1
4.195195260E0;-1.014397264E0;-1.224121094E0;4.158523083E-1
4.211861250E0;-1.274854302E0;-1.282044768E0;1.055942550E-1
4.228527239E0;-1.194027424E0;-6.885597706E-1;5.912213027E-2
4.245193229E0;-8.472840786E-1;-1.660479754E-1;1.737711281E-1
4.261859218E0;-4.741754830E-1;-1.624527015E-2;2.166479975E-1
4.278525208E0;-3.069290817E-1;1.957421899E-1;1.127847880E-1
4.295191198E0;-4.370244145E-1;6.562023759E-1;-1.126516312E-1
4.311857187E0;-7.069355845E-1;8.398272395E-1;-4.715123177E-1
4.328523177E0;-7.631282210E-1;5.689839721E-1;-8.771114349E-1
4.345189166E0;-4.800344408E-1;3.994738683E-3;-1.174053669E0
4.361855156E0;-3.410175145E-1;-5.566002727E-1;-1.100417376E0
4.378521146E0;-3.611243665E-1;-8.760461807E-1;-5.094623566E-1
4.395187135E0;-3.861580743E-3;-3.699128032E-1;4.850944281E-1
4.411853125E0;3.625891209E-1;2.890859246E-1;1.012000442E0
4.428519114E0;3.340933025E-1;8.454198837E-1;8.306393027E-1
4.445185104E0;-4.356928170E-1;4.407528341E-1;2.263685223E-3
4.461851093E0;-1.269128442E0;-7.406245470E-1;-8.699209094E-1
4.478517083E0;-1.395495415E0;-5.346291661E-1;-1.198554754E0
4.495183073E0;-7.484808564E-1;2.115879953E-1;-1.313336968E0
4.511849062E0;-8.615319431E-2;-1.411474310E-2;-1.465003848E0
4.528515052E0;3.596596420E-1;-3.247722387E-1;-1.543700218E0
4.545181041E0;6.154560447E-1;-2.699111700E-1;-1.332245350E0
4.561847031E0;8.033419251E-1;-4.954807460E-1;-9.803088903E-1
4.578513021E0;9.578051567E-1;-1.172722101E0;-6.850976944E-1
4.595179010E0;9.254477620E-1;-1.703622937E0;-7.149250507E-1
4.611845000E0;2.463422120E-1;-6.431529522E-1;-1.109738350E0
4.628510989E0;-7.740471959E-1;8.265114427E-1;-1.351819515E0
4.645176979E0;-1.184440017E0;8.282424808E-1;-1.177782059E0
4.661842968E0;-9.598025680E-1;5.572660565E-1;-1.082174659E0
4.678508958E0;-4.836297035E-1;1.569932252E-1;-9.647293687E-1
4.695174948E0;-1.346226931E-1;-2.390185297E-1;-8.009451032E-1
4.711840937E0;-8.815056831E-2;-3.865575492E-1;-6.699176431E-1
4.728506927E0;-2.900180221E-1;-2.304964215E-1;-5.917539597E-1
4.745172916E0;-5.906887054E-1;-2.396843210E-2;-6.627271175E-1
4.761838906E0;-8.438219428E-1;5.313002318E-2;-8.672577739E-1
4.778504896E0;-9.861677885E-1;9.014793485E-2;-1.050483108E0
4.795170885E0;-9.624657035E-1;2.520680130E-1;-1.127581596E0
4.811836875E0;-7.139929533E-1;4.390217662E-1;-1.112667918E0
4.828502864E0;-3.085269928E-1;5.905555487E-1;-1.026780963E0
4.845168854E0;4.141212255E-2;7.319692969E-1;-9.137299061E-1
4.861834843E0;1.279647946E-1;8.189214468E-1;-8.470177650E-1
4.878500833E0;-2.783001214E-2;7.223818898E-1;-8.131956458E-1
4.895166823E0;-2.901511788E-1;2.563290596E-1;-6.878939867E-1
4.911832812E0;-4.870918095E-1;-3.791007102E-1;-4.446144104E-1
4.928498802E0;-4.870918095E-1;-8.792420030E-1;-1.504684836E-1
4.945164791E0;-1.954758763E-1;-9.177246094E-1;2.572611570E-1
4.961830781E0;2.475406379E-1;-7.712509036E-1;8.797746301E-1
4.978496771E0;6.563355327E-1;-6.759097576E-1;1.581783295E0
4.995162760E0;9.265130758E-1;-6.427534223E-1;2.008821011E0
5.011828750E0;1.217995763E0;-5.082638860E-1;2.321742058E0
5.028494739E0;1.946503043E0;-5.858949851E-3;2.412822247E0
5.045160729E0;2.927078247E0;6.663224101E-1;2.356096745E0
5.061826718E0;3.311505079E0;1.507081747E0;2.313752651E0
5.078492708E0;2.870486021E0;2.232659340E0;1.877926588E0
5.095158698E0;1.707883954E0;1.569932342E0;1.363537431E0
5.111824687E0;3.668501675E-1;-6.657897960E-3;1.042360425E0
5.128490677E0;-4.036017656E-1;-3.621896505E-1;8.227829933E-1
5.145156666E0;-1.086568907E-1;3.901528120E-1;1.576457024E0
5.161822656E0;6.462155581E-1;6.807034612E-1;2.645315886E0
5.178488646E0;8.153261542E-1;7.936213911E-2;2.443182230E0
5.195154635E0;3.231743574E-1;-6.149234176E-1;1.723862886E0
5.211820625E0;-4.018706977E-1;-1.368464351E0;1.351819515E0
5.228486614E0;-9.896299243E-1;-1.789243460E0;1.071388960E0
5.245152604E0;-1.293895841E0;-1.487107992E0;8.428898454E-1
5.261818593E0;-1.312804222E0;-8.922914863E-1;6.331660748E-1
5.278484583E0;-1.149286270E0;-3.286338449E-1;3.496727943E-1
5.295150573E0;-9.503483176E-1;1.296958476E-1;-9.321057005E-4
5.311816562E0;-8.504798412E-1;5.026713014E-1;-3.375554085E-1
5.328482552E0;-8.980172276E-1;7.211834788E-1;-6.499440074E-1
5.345148541E0;-1.041028857E0;8.894951344E-1;-1.130511045E0
5.361814531E0;-1.040363073E0;6.428865790E-1;-1.742771268E0
5.378480521E0;-5.685844421E-1;-4.075964987E-1;-2.203497887E0
5.395146510E0;4.877575934E-1;-1.480316997E0;-2.085519791E0
5.411812500E0;5.980123878E-1;-1.181643724E0;-8.514119387E-1
5.428478489E0;-4.808333814E-1;-8.327698708E-1;8.757798672E-1
5.445144479E0;-3.888212144E-1;1.102281570E0;2.025598764E0
5.461810468E0;7.576687634E-2;1.293762684E0;1.901495576E0
5.478476458E0;1.771000773E-2;8.012114167E-1;1.321859002E0
5.495142448E0;-5.109270811E-1;1.145824194E0;1.536642760E-1
5.511808437E0;-1.544099689E0;9.038761854E-1;-5.611276031E-1
5.528474427E0;-1.771267176E0;-5.942839384E-1;-3.561975360E-1
5.545140416E0;-8.096003532E-1;-1.813744545E0;-4.536691606E-1
5.561806406E0;-1.922800839E-1;-1.604553342E0;-1.057806849E0
5.578472396E0;9.334372729E-2;-8.266445994E-1;-1.627456546E0
5.595138385E0;3.055975139E-1;3.051980436E-1;-1.787112951E0
5.611804375E0;5.717802644E-1;1.064731002E0;-1.508147001E0
5.628470364E0;7.664572001E-1;9.781783223E-1;-1.189499974E0
5.645136354E0;9.323719740E-1;3.336938322E-1;-1.147821546E0
5.661802343E0;1.061135769E0;-5.757750273E-1;-1.467267513E0
5.678468333E0;9.540767670E-1;-1.396028042E0;-1.866075635E0
5.695134323E0;4.190480709E-1;-1.419463754E0;-2.056092024E0
5.711800312E0;-5.459476113E-1;5.130575895E-1;-1.938779831E0
5.728466302E0;-1.125051618E0;1.758217692E0;-1.498825908E0
5.745132291E0;-1.187236309E0;1.497228026E0;-1.050083637E0
5.761798281E0;-9.270457029E-1;3.861580789E-1;-7.548724413E-1
5.778464271E0;-5.484775901E-1;1.066595241E-1;-4.659196734E-1
5.795130260E0;-1.548627019E-1;7.797729969E-1;-1.142495275E-1
5.811796250E0;9.400951862E-2;1.457413793E0;1.344895363E-2
5.828462239E0;1.970737800E-2;1.790708184E0;-1.893506050E-1
5.845128229E0;-3.516701460E-1;1.561809659E0;-6.580666304E-1
5.861794218E0;-7.102645040E-1;6.628602743E-1;-1.196557403E0
5.878460208E0;-7.862977386E-1;-2.910832763E-1;-1.499225378E0
5.895126198E0;-4.673844278E-1;-5.045354962E-1;-1.441301703E0
5.911792187E0;-5.592633970E-3;-1.824264042E-2;-1.260340095E0
5.928458177E0;2.078595608E-1;3.926828206E-1;-1.074185252E0
5.945124166E0;7.470161468E-2;2.625874877E-1;-8.583361506E-1
5.961790156E0;-3.733749092E-1;-3.070622385E-1;-5.415533781E-1
5.978456146E0;-7.334340215E-1;-6.427534223E-1;-2.663159044E-3
5.995122135E0;-5.496760607E-1;-6.635261178E-1;6.050697565E-1
6.011788125E0;1.078579426E-1;-7.203845382E-1;9.833714962E-1
6.028454114E0;7.008103132E-1;-8.744482994E-1;1.317331672E0
6.045120104E0;1.008671522E0;-9.502151608E-1;1.661544919E0
6.061786093E0;1.228115797E0;-1.094158888E0;1.965544581E0
6.078452083E0;1.628921270E0;-1.103613138E0;2.392049551E0
6.095118073E0;2.125733614E0;-7.455514073E-1;2.694850683E0
6.111784062E0;2.300303698E0;1.207742617E-1;2.521479130E0
6.128450052E0;2.335723639E0;1.520131230E0;2.208291531E0
6.145116041E0;2.243977785E0;2.577671766E0;2.094042063E0
6.161782031E0;1.877127647E0;2.600574970E0;2.010285616E0
6.178448021E0;1.208807945E0;1.908153534E0;1.986849904E0
6.195114010E0;4.900212884E-1;1.296292663E0;2.141446352E0
6.211780000E0;2.380864173E-1;3.303648829E-1;2.547711134E0
6.228445989E0;2.697780132E-1;-6.815024018E-1;2.414553165E0
6.245111979E0;8.189214021E-2;-1.328117490E0;1.720800281E0
6.261777968E0;-4.474107325E-1;-1.875263453E0;1.237703204E0
6.278443958E0;-9.145288467E-1;-2.155161619E0;9.695230722E-1
6.295109948E0;-1.191364169E0;-1.944505572E0;7.038729787E-1
6.311775937E0;-1.334109545E0;-1.487906933E0;4.576638937E-1
6.328441927E0;-1.318530083E0;-8.953540921E-1;1.824263930E-1
6.345107916E0;-1.151150465E0;-2.129195631E-1;-8.482161909E-2
6.361773906E0;-9.362335801E-1;3.565970063E-1;-3.418164849E-1
6.378439896E0;-7.568697929E-1;7.394261360E-1;-5.720465779E-1
6.395105885E0;-7.137266397E-1;8.101329803E-1;-7.045387626E-1
6.411771875E0;-8.077361584E-1;7.366297841E-1;-9.608678222E-1
6.428437864E0;-7.382277250E-1;3.853591084E-1;-1.323856354E0
6.445103854E0;-2.668485343E-1;-6.643250585E-1;-1.520397544E0
6.461769843E0;4.004059732E-1;-1.022120476E0;-1.413205385E0
6.478435833E0;-3.137201369E-1;-3.213101327E-1;-6.360955238E-1
6.495101823E0;-1.131176829E0;-4.980107397E-2;6.119939685E-1
6.511767812E0;-1.479384899E-1;4.804339111E-1;1.474457979E0
6.528433802E0;5.922865868E-1;1.151816323E-1;1.387505889E0
6.545099791E0;1.490037590E-1;-6.233124137E-1;6.853640079E-1
6.561765781E0;-8.482161760E-1;-5.617933869E-1;-4.902876019E-1
6.578431771E0;-1.728656530E0;8.097335100E-1;-1.460875869E0
6.595097760E0;-1.995771408E0;1.563807011E0;-1.119725227E0
6.611763750E0;-6.512755752E-1;-6.054692268E-1;5.123918056E-1
6.628429739E0;7.054708600E-1;-1.163534164E0;9.567399025E-1
6.645095729E0;8.548740745E-1;-1.619200706E-1;-1.213068962E-1
6.661761718E0;6.776408553E-1;1.460742801E-1;-1.411074877E0
6.678427708E0;4.930838943E-1;-1.246358454E-1;-2.133456707E0
6.695093698E0;2.692453861E-1;-3.944138587E-1;-2.300703049E0
6.711759687E0;1.253016293E-1;-2.657832801E-1;-2.118143559E0
6.728425677E0;1.089232042E-1;-7.190529723E-3;-1.874997139E0
6.745091666E0;1.360874325E-1;-2.129195631E-1;-1.773797154E0
6.761757656E0;1.898832470E-1;-1.111735821E0;-1.852626681E0
6.778423646E0;-3.848264739E-2;-1.845436096E0;-1.967675090E0
6.795089635E0;-9.902957082E-1;7.558045387E-1;-2.085919380E0
6.811755625E0;-1.688575983E0;3.094590902E0;-1.799896121E0
6.828421614E0;-1.832253456E0;2.202698946E0;-1.275919557E0
6.845087604E0;-1.665806055E0;-1.822932363E-1;-7.294392586E-1
6.861753593E0;-1.243961573E0;-1.264734268E0;-2.189116776E-1
6.878419583E0;-6.767086983E-1;-3.716438413E-1;1.692437679E-1
6.895085573E0;-2.042642981E-1;1.025449395E0;2.218411565E-1
6.911751562E0;-2.221074700E-1;1.982988238E0;-9.467530251E-2
6.928417552E0;-7.358308434E-1;1.791640282E0;-6.804371476E-1
6.945083541E0;-1.183774233E0;7.993472219E-1;-1.395894885E0
6.961749531E0;-1.104012609E0;1.711079776E-1;-1.837712884E0
6.978415521E0;-1.378184855E-1;6.032055616E-1;-1.662743330E0
6.995081510E0;7.661908865E-1;6.029392481E-1;-1.380714893E0
7.011747500E0;9.526119828E-1;1.394163817E-1;-1.199753165E0
7.028413489E0;4.110586047E-1;-3.182475269E-1;-9.740504622E-1
7.045079479E0;-3.230412006E-1;-6.351634264E-1;-4.443480968E-1
7.061745468E0;-5.094623566E-1;-7.612640262E-1;3.711112142E-1
7.078411458E0;-1.772332340E-1;-1.063798904E0;9.932252169E-1
7.095077448E0;1.057274193E-1;-9.937578440E-1;1.482580662E0
7.111743437E0;3.025348783E-1;-6.125265956E-1;1.919338822E0
7.128409427E0;6.600639820E-1;-5.061333776E-1;2.304564714E0
7.145075416E0;1.637043953E0;-3.829622865E-1;2.524674892E0
7.161741406E0;2.757967472E0;9.108003974E-2;2.713892221E0
7.178407396E0;3.054377079E0;8.602004051E-1;2.706169128E0
7.195073385E0;2.910300255E0;1.850762367E0;2.499907494E0
7.211739375E0;2.517351151E0;2.489654303E0;2.242113590E0
7.228405364E0;1.592302799E0;2.339052677E0;1.925730348E0
7.245071354E0;3.089264631E-1;1.988314629E0;1.977528811E0
7.261737343E0;2.861564457E-1;2.098968744E0;2.955174446E0
7.278403333E0;9.825725555E-1;7.854987979E-1;3.177015543E0
7.295069323E0;9.886978269E-1;-7.929556370E-1;2.175268412E0
7.311735312E0;4.928175807E-1;-1.686844945E0;1.619600177E0
7.328401302E0;-9.534109384E-2;-2.251967430E0;1.504951239E0
7.345067291E0;-6.439518929E-1;-2.479534388E0;1.275386930E0
7.361733281E0;-1.044091582E0;-2.131193161E0;9.321056604E-1
7.378399271E0;-1.224387407E0;-1.209074259E0;5.091960430E-1
7.395065260E0;-1.238901615E0;-2.226400971E-1;2.063948289E-2
7.411731250E0;-1.211870551E0;4.697812796E-1;-5.079975724E-1
7.428397239E0;-1.323057413E0;8.435556293E-1;-1.170857906E0
7.445063229E0;-1.526256442E0;9.467530847E-1;-2.067543507E0
7.461729218E0;-1.371926427E0;1.581916511E-1;-3.015894413E0
7.478395208E0;4.379565120E-1;-2.351569414E0;-2.688991785E0
7.495061198E0;1.345161676E0;-2.530800104E0;-3.483411968E-1
7.511727187E0;-1.097754240E0;-7.091992497E-1;2.499907494E0
7.528393177E0;-1.332777977E0;1.552355409E0;2.574742317E0
7.545059166E0;-1.408811212E-1;2.191114187E0;1.492833853E0
7.561725156E0;3.755054474E-1;1.085104227E0;1.059404731E0
7.578391146E0;-3.398191035E-1;1.094025731E0;-1.278183222E0
7.595057135E0;-7.894935012E-1;2.383527279E0;-3.129611492E0
7.611723125E0;-1.017326832E0;1.565804362E0;-2.255429506E0
7.628389114E0;-7.310371995E-1;-5.030707717E-1;-7.920235395E-1
7.645055104E0;-3.700459599E-1;-1.677657127E0;-6.724476814E-1
7.661721093E0;-1.123853177E-1;-1.623062372E0;-1.431847453E0
7.678387083E0;1.735048145E-1;-9.655283093E-1;-2.197905302E0
7.695053073E0;5.134570599E-1;-7.076013684E-1;-2.542917490E0
7.711719062E0;6.684529185E-1;-9.878988862E-1;-2.612559080E0
7.728385052E0;5.006738901E-1;-1.690573454E0;-2.543316841E0
7.745051041E0;5.925529078E-2;-2.150367737E0;-2.350903749E0
7.761717031E0;-7.861645818E-1;-1.199486852E0;-2.226267815E0
7.778383021E0;-1.359276414E0;9.550088644E-1;-2.098036766E0
7.795049010E0;-1.433977962E0;2.433328390E0;-1.779922366E0
7.811715000E0;-1.193761110E0;2.713892221E0;-1.423591733E0
7.828380989E0;-8.427566886E-1;1.490570188E0;-1.077114701E0
7.845046979E0;-5.273054838E-1;-1.399490088E-1;-6.436855793E-1
7.861712968E0;-2.400837988E-1;-8.331693411E-1;-1.695100814E-1
7.878378958E0;1.019989923E-1;-1.375521719E-1;7.856319658E-3
7.895044948E0;-1.111868918E-1;1.178714275E0;-1.350221634E-1
7.911710937E0;-1.292830586E0;2.544914722E0;-5.358276367E-1
7.928376927E0;-1.953427196E0;1.067660451E0;-8.380961418E-1
7.945042916E0;-1.780055523E0;-1.196956873E0;-1.141696334E0
7.961708906E0;-1.061402082E0;-1.390568495E0;-1.215732098E0
7.978374896E0;5.713807940E-1;6.038713455E-1;-7.460840344E-1
7.995040885E0;1.519864917E0;-2.246374637E-1;-1.484711170E-1
8.011706875E0;1.663675547E0;-1.886448741E0;3.725759685E-1
8.028372864E0;1.096555710E0;-2.757701159E0;7.992140651E-1
8.045038854E0;6.050697565E-1;-2.667553425E0;1.213734746E0
8.061704843E0;6.721813679E-1;-1.968074560E0;1.702291250E0
8.078370833E0;1.337971091E0;-4.934833944E-1;2.425871611E0
8.095036823E0;2.306029558E0;1.497361183E0;3.145057678E0
8.111702812E0;2.743586540E0;2.361156940E0;3.370627403E0
8.128368802E0;2.460758924E0;2.698978662E0;3.304847240E0
8.145034791E0;1.177515745E0;2.309491634E0;3.185804129E0
8.161700781E0;-9.014793634E-1;1.252883196E0;2.755703926E0
8.178366771E0;-7.608645558E-1;1.739176035E0;2.406563759E0
8.195032760E0;1.325853705E0;4.404865205E-1;2.876211882E0
8.211698750E0;1.359942198E0;-1.600824952E0;2.513356447E0
8.228364739E0;3.756386042E-1;-1.423858047E0;1.839044571E0
8.245030729E0;-4.131891429E-1;-4.235754609E-1;1.459144831E0
8.261696718E0;-7.965508699E-1;-5.615270734E-1;9.090693593E-1
8.278362708E0;-9.836378098E-1;-1.464604378E0;2.679138184E-1
8.295028698E0;-1.053678870E0;-1.679654479E0;-1.921469271E-1
8.311694687E0;-1.050616264E0;-1.371926427E0;-5.768402815E-1
8.328360677E0;-9.612672925E-1;-6.918887496E-1;-1.081642032E0
8.345026666E0;-8.796414733E-1;2.609896064E-1;-1.789776087E0
8.361692656E0;-8.310387731E-1;1.120124698E0;-2.618684292E0
8.378358646E0;-9.033435583E-1;1.476322293E0;-3.172088861E0
8.395024635E0;-9.865673184E-1;1.219194293E0;-3.395128489E0
8.411690625E0;-4.310323000E-1;1.223721579E-1;-3.500456333E0
8.428356614E0;1.477920175E0;-2.384992123E0;-3.264234066E0
8.445022604E0;2.188051462E0;-3.010701418E0;-2.419480085E0
8.461688593E0;1.485909581E0;-1.704155564E0;-9.338367581E-1
8.478354583E0;1.492700696E0;2.095772982E0;1.451022267E0
8.495020573E0;2.412822098E-1;4.046536922E0;2.963963032E0
8.511686562E0;-1.090563655E0;3.731086016E0;3.033737659E0
8.528352552E0;-1.553820133E0;4.550673008E0;2.044640303E0
8.545018541E0;-8.659262061E-1;5.218194008E0;2.519348562E-1
8.561684531E0;4.673844278E-1;8.958867192E-1;-1.527987480E0
8.578350521E0;8.809730411E-1;-4.125899315E0;-2.726542234E0
8.595016510E0;2.691122293E-1;-5.480781555E0;-3.460109472E0
8.611682500E0;-4.769718051E-1;-3.292729855E0;-3.859849691E0
8.628348489E0;-8.333024979E-1;6.904240251E-1;-3.613241196E0
8.645014479E0;-8.908267021E-1;2.957438231E-1;-2.870885611E0
8.661680468E0;-8.301066756E-1;-1.577921748E0;-2.362488508E0
8.678346458E0;-1.105610490E0;-2.218145132E0;-2.161419868E0
8.695012448E0;-1.703622937E0;-3.263701499E-1;-1.985118747E0
8.711678437E0;-1.862347126E0;1.872200847E0;-1.651158690E0
8.728344427E0;-1.284974217E0;2.394180059E0;-1.157808423E0
8.745010416E0;-4.386222959E-1;1.430116415E0;-7.302381992E-1
8.761676406E0;2.816290855E-1;-1.230379492E-1;-5.026713014E-1
8.778342396E0;5.733781457E-1;-9.747162461E-1;-3.435475230E-1
8.795008385E0;3.644533157E-1;-1.092427850E0;-1.041295230E-1
8.811674375E0;-1.123853177E-1;-1.210672140E0;1.884185076E-1
8.828340364E0;-5.720465779E-1;-1.549958587E0;6.036050320E-1
8.845006354E0;-6.526071429E-1;-1.934252501E0;1.055010438E0
8.861672343E0;-2.346243113E-1;-1.817739248E0;1.387239575E0
8.878338333E0;6.944187284E-1;-9.729851484E-1;1.551556468E0
8.895004323E0;1.472194314E0;-2.547311783E-1;1.888712406E0
8.911670312E0;1.689108610E0;6.727139950E-1;3.037066698E0
8.928336302E0;1.632117033E0;1.000282526E0;4.473042011E0
8.945002291E0;1.976330400E0;1.808950782E0;5.443763733E0
8.961668281E0;2.767288685E0;4.241213799E0;4.796616077E0
8.978334271E0;2.042243481E0;5.109537125E0;2.405897856E0
8.995000260E0;-4.312986135E-1;3.427485704E0;1.849697113E0
9.011666250E0;8.096003532E-2;2.912697077E0;2.905905962E0
9.028332239E0;6.057355404E-1;-3.282343447E-1;2.359825373E0
9.044998229E0;4.146538675E-1;-1.934518814E0;1.352884769E0
9.061664218E0;-2.006690353E-1;-1.481648564E0;8.305061460E-1
9.078330208E0;-8.097335100E-1;-6.237118840E-1;1.416800618E-1
9.094996198E0;-1.031042099E0;-5.534044504E-1;-4.569981098E-1
9.111662187E0;-8.408924937E-1;-5.688507557E-1;-1.053013086E0
9.128328177E0;-4.075964987E-1;-2.628538013E-1;-1.686445475E0
9.144994166E0;6.418213248E-2;3.166496158E-1;-2.310423613E0
9.161660156E0;4.442149401E-1;6.086649895E-1;-2.780071735E0
9.178326146E0;3.559312224E-1;-9.906952083E-2;-2.974615574E0
9.194992135E0;1.597895473E-1;-1.445562720E0;-3.141595602E0
9.211658125E0;1.168327928E0;-2.484328032E0;-3.275153160E0
9.228324114E0;2.046637774E0;-2.061418295E0;-2.763959646E0
9.244990104E0;1.092294693E0;-5.949497223E-1;-1.372059584E0
9.261656093E0;1.251684781E-2;5.938844681E-1;2.780338228E-1
9.278322083E0;-8.388951421E-3;2.941725492E0;1.822666049E0
9.294988073E0;-7.440866828E-1;3.773430109E0;2.697513819E0
9.311654062E0;-1.437573314E0;2.327068329E0;2.991526604E0
9.328320052E0;-1.748630285E0;8.652604222E-1;3.132540941E0
9.344986041E0;-1.095756769E0;-9.400951862E-2;2.252500057E0
9.361652031E0;9.025446177E-1;8.135951310E-2;-5.378249884E-1
9.378318021E0;2.194975615E0;8.322372288E-2;-3.461840630E0
9.394984010E0;1.540238023E0;-3.070622385E-1;-4.302865982E0
9.411650000E0;1.073253155E-1;3.089264631E-1;-4.241746426E0
9.428315989E0;-4.988096952E-1;-1.061535239E0;-4.208590508E0
9.444981979E0;-1.031841040E0;-4.023900032E0;-3.838943958E0
9.461647968E0;-1.970471382E0;-5.497692585E0;-3.116695166E0
9.478313958E0;-3.040928125E0;-2.001363993E0;-2.439720154E0
9.494979948E0;-2.485260010E0;3.281278372E0;-2.191779852E0
9.511645937E0;-8.757798672E-1;5.521261215E0;-2.064481020E0
9.528311927E0;1.146489978E-1;3.241330862E0;-1.181643724E0
9.544977916E0;5.764408112E-1;-7.255777121E-1;-1.589905918E-1
9.561643906E0;8.756467104E-1;-2.377535343E0;2.079927325E-1
9.578309896E0;7.940208912E-1;-1.939312458E0;2.219743133E-1
9.594975885E0;4.213117659E-1;-1.302417994E0;1.985385120E-1
9.611641875E0;3.954791278E-2;-1.384043813E0;3.518033028E-1
9.628307864E0;-2.218411565E-1;-1.565005422E0;5.918871164E-1
9.644973854E0;-1.707084924E-1;-1.491369128E0;9.319725037E-1
9.661639843E0;1.400821656E-1;-1.308410048E0;1.285240531E0
9.678305833E0;5.890907645E-1;-1.198687911E0;1.598694444E0
9.694971823E0;9.133304358E-1;-1.002013564E0;1.866208792E0
9.711637812E0;9.855020046E-1;-3.631217480E-1;2.377002716E0
9.728303802E0;9.743167758E-1;2.909501195E-1;3.236936808E0
9.744969791E0;1.261937976E0;9.844367504E-1;4.195940495E0
9.761635781E0;2.260489464E0;2.685396433E0;4.530166626E0
9.778301771E0;2.251701117E0;4.814325809E0;3.522693634E0
9.794967760E0;-1.112534761E0;4.806469440E0;2.357561588E0
9.811633750E0;-1.494165421E0;4.334424496E0;2.290183783E0
9.828299739E0;2.841590643E-1;9.771130681E-1;2.484993696E0
9.844965729E0;7.222487330E-1;-1.456881166E0;1.535577536E0
9.861631718E0;4.745749533E-1;-1.627323389E0;7.368960977E-1
9.878297708E0;-9.427583218E-2;-7.836345434E-1;2.004027218E-1
9.894963698E0;-4.992091656E-1;3.328948980E-3;-3.016027808E-1
9.911629687E0;-5.597960353E-1;2.720417082E-1;-8.876309395E-1
9.928295677E0;-3.793670237E-1;2.783001363E-1;-1.591903329E0
9.944961666E0;-1.318263728E-2;2.488722205E-1;-2.125200987E0
9.961627656E0;4.040012360E-1;3.249054253E-1;-2.511625290E0
9.978293646E0;7.150582075E-1;1.319595277E-1;-2.824679613E0
9.994959635E0;6.888260841E-1;-9.583377838E-1;-2.920553446E0
1.001162562E1;7.615303397E-1;-1.980857730E0;-2.799246550E0
1.002829161E1;1.395229101E0;-1.374456406E0;-2.378733635E0
1.004495760E1;8.536756635E-1;1.090563685E-1;-9.867004752E-1
1.006162359E1;-5.290365815E-1;4.107922912E-1;1.157941580E0
1.007828958E1;-1.446228504E0;-5.177181363E-1;3.194858789E0
1.009495557E1;-1.680453420E-1;1.925996661E0;4.648810387E0
1.011162156E1;1.769669205E-1;3.476088524E0;5.015926838E0
1.012828755E1;-7.310371995E-1;2.714158535E0;3.989545584E0
1.014495354E1;-5.471460223E-1;3.287803173E0;1.522528052E0
1.016161953E1;8.046735525E-1;3.220425129E0;-1.466601729E0
1.017828552E1;1.854490876E0;-4.464786351E-1;-3.539205313E0
1.019495151E1;1.450356483E0;-4.200334549E0;-3.976362944E0
1.021161750E1;1.051947832E0;-4.562124729E0;-3.860382318E0
1.022828349E1;9.510141015E-1;-3.069423914E0;-4.011916161E0
1.024494948E1;2.930806577E-1;-2.526805401E0;-3.757584333E0
1.026161547E1;-1.834517121E0;-2.175934076E0;-3.495529413E0
1.027828146E1;-3.436806917E0;-1.615339160E0;-3.514171600E0
1.029494745E1;-3.877160072E0;1.358211160E0;-3.557447910E0
1.031161344E1;-2.006290913E0;5.140962124E0;-3.105376720E0
1.032827943E1;-1.356879622E-1;3.196323633E0;-1.846101880E0
1.034494542E1;4.367581010E-1;-1.080044150E0;-2.472743243E-1
1.036161141E1;7.355645299E-1;-3.013897181E0;5.801692009E-1
1.037827740E1;8.993488550E-1;-2.834799767E0;8.535425067E-1
1.039494339E1;7.366297841E-1;-1.318263769E0;9.115993381E-1
1.041160938E1;6.715155840E-1;-9.223851562E-1;1.005742073E0
1.042827536E1;6.580666304E-1;-1.555551291E0;1.184040546E0
1.044494135E1;5.063996911E-1;-1.891908169E0;1.235040069E0
1.046160734E1;3.269027770E-1;-1.354083300E0;1.235306382E0
1.047827333E1;3.507380486E-1;-3.022685647E-2;1.196557403E0
1.049493932E1;5.568665862E-1;1.058605790E0;1.300154328E0
1.051160531E1;7.127945423E-1;1.564206481E0;1.594433308E0
1.052827130E1;6.664555669E-1;1.537974358E0;2.187518835E0
1.054493729E1;4.153196514E-1;1.514804840E0;2.868755102E0
1.056160328E1;8.885630369E-1;9.985514879E-1;3.763043880E0
1.057826927E1;1.770068645E0;1.681518674E0;4.450405121E0
1.059493526E1;1.055942550E-1;1.686844945E0;3.604452610E0
1.061160125E1;-4.068508148E0;3.821367025E0;2.179795742E0
1.062826724E1;-2.762361765E0;5.668800354E0;2.026264668E0
1.064493323E1;-5.103944540E-1;-2.567285299E-1;1.576590180E0
1.066159922E1;5.442165732E-1;-3.629752636E0;7.042724490E-1
1.067826521E1;4.415517747E-1;-3.611243725E0;2.587259114E-1
1.069493120E1;-5.685844645E-2;-2.433195353E0;-1.372858584E-1
1.071159719E1;-2.908169627E-1;-1.321326375E0;-3.500722647E-1
1.072826318E1;-2.017343044E-1;-4.315649271E-1;-6.768419147E-1
1.074492917E1;1.099884734E-1;2.703106403E-1;-1.161936283E0
1.076159516E1;4.213117659E-1;5.664539337E-1;-1.687111259E0
1.077826115E1;6.584661007E-1;4.926844239E-1;-2.156759501E0
1.079492714E1;8.137282729E-1;9.680583328E-2;-2.448774815E0
1.081159312E1;8.293077350E-1;-4.739091694E-1;-2.515886307E0
1.082825911E1;6.819018722E-1;-1.116263151E0;-2.284857273E0
1.084492510E1;6.487455368E-1;-1.456481695E0;-1.874997139E0
1.086159109E1;1.133973122E0;-9.149283171E-1;-1.359276414E0
1.087825708E1;1.372459054E0;1.488972306E0;-5.487439036E-1
1.089492307E1;5.273054913E-2;2.810964346E0;8.908267021E-1
1.091158906E1;-1.314402223E0;1.525457501E0;2.384725809E0
1.092825505E1;-1.641571283E0;-1.484711170E-1;3.329614639E0
1.094492104E1;-1.602422833E0;-6.355628967E-1;3.680219650E0
1.096158703E1;-6.403566003E-1;1.676192284E0;3.353716373E0
1.097825302E1;9.134635925E-1;5.139231205E0;2.003494501E0
1.099491901E1;6.002760530E-1;2.821217537E0;-1.747032404E-1
1.101158500E1;4.992091656E-1;-1.386706948E0;-2.498043299E0
1.102825099E1;1.003611565E0;-3.001113892E0;-3.763310194E0
1.104491698E1;1.566736460E0;-2.409226894E0;-3.935749769E0
1.106158297E1;2.161419868E0;-3.504717350E-1;-3.790740728E0
1.107824896E1;2.098702431E0;2.368880063E-1;-3.333609343E0
1.109491495E1;6.996119022E-1;1.950764060E-1;-3.304580927E0
1.111158094E1;-1.654620767E0;-4.542017877E-1;-4.033487797E0
1.112824693E1;-3.648927450E0;-1.308410048E0;-4.502736092E0
1.114491292E1;-4.789425373E0;3.400854170E-1;-4.260788441E0
1.116157891E1;-3.435209036E0;3.856520653E0;-3.364102602E0
1.117824490E1;-6.430197358E-1;3.543333292E0;-2.344645262E0
1.119491088E1;1.273256421E0;-1.580584943E-1;-1.041694641E0
1.121157688E1;1.935850382E0;-2.654903412E0;3.049317189E-2
1.122824286E1;1.880190372E0;-2.760897160E0;5.209138989E-1
1.124490885E1;1.104678392E0;-1.163401008E0;5.566002727E-1
1.126157484E1;3.880222738E-1;-4.937497079E-1;5.167860389E-1
1.127824083E1;8.788425475E-3;-1.006274700E0;7.021418810E-1
1.129490682E1;-1.805621833E-1;-1.364602685E0;9.522125125E-1
1.131157281E1;-2.218411565E-1;-1.103346825E0;1.147821546E0
1.132823880E1;-9.707214683E-2;-4.414186180E-1;1.273522735E0
1.134490479E1;1.410142779E-1;2.969422378E-2;1.413471699E0
1.136157078E1;3.572627902E-1;2.103895694E-2;1.716539145E0
1.137823677E1;4.488754570E-1;-5.684512854E-1;2.242513180E0
1.139490276E1;5.056007504E-1;-1.236771107E0;2.842123508E0
1.141156875E1;1.012533069E0;-1.969272971E0;3.422958374E0
1.142823474E1;2.252766371E0;-9.181240797E-1;3.891008615E0
1.144490073E1;2.806437016E0;2.553836346E0;3.943073273E0
1.146156672E1;-1.487507463E0;5.717536449E0;3.529484749E0
1.147823271E1;-3.839476585E0;4.858534336E0;2.171939373E0
1.149489870E1;-1.561010718E0;2.083122969E0;1.728390217E0
1.151156469E1;4.299670458E-1;-1.337704778E0;1.613208652E0
1.152823068E1;9.599357247E-1;-1.928393483E0;8.289082646E-1
1.154489667E1;1.715074480E-1;-1.337305307E0;3.649859428E-1
1.156156266E1;-9.049414396E-1;-6.707166433E-1;1.968074590E-1
1.157822865E1;-1.124918461E0;-1.498026997E-1;9.454214945E-3
1.159489464E1;-6.440850496E-1;-2.139848322E-1;-3.491401672E-1
1.161156063E1;-8.828372508E-2;-5.127912760E-1;-9.134635925E-1
1.162822661E1;2.679138184E-1;-6.539387107E-1;-1.497228026E0
1.164489260E1;5.153213143E-1;-8.347672224E-1;-1.873665571E0
1.166155859E1;7.314366698E-1;-1.351153731E0;-1.944239259E0
1.167822458E1;8.934898973E-1;-1.980458260E0;-1.796700239E0
1.169489057E1;9.598025680E-1;-2.504168510E0;-1.514671683E0
1.171155656E1;8.982835412E-1;-1.855556130E0;-1.082707286E0
1.172822255E1;7.667235136E-1;7.761777043E-1;-5.965476632E-1
1.174488854E1;1.448758543E-1;3.403650522E0;1.223721579E-1
1.176155453E1;-7.582014203E-1;3.757051706E0;1.117062092E0
1.177822052E1;-1.271924734E0;2.754505396E0;2.023734570E0
1.179488651E1;-9.137299061E-1;1.521196485E0;2.422675848E0
1.181155250E1;-9.459540844E-1;8.574040532E-1;2.576872826E0
1.182821849E1;-3.519364893E-1;1.302684307E0;2.574875355E0
1.184488448E1;1.547828078E0;2.372075796E0;1.739575505E0
1.186155047E1;2.273938417E0;1.662343860E0;-5.645897239E-2
1.187821646E1;1.031841040E0;-6.410223842E-1;-2.001497269E0
1.189488245E1;6.374271512E-1;-2.410691738E0;-3.295392990E0
1.191154844E1;8.057388067E-1;-2.426271200E0;-3.957853794E0
1.192821443E1;1.045822620E0;-1.856088758E0;-3.971302748E0
1.194488042E1;9.944236279E-1;-1.808418155E0;-3.397525311E0
1.196154641E1;-1.459411234E-1;-7.917572260E-1;-3.449190617E0
1.197821240E1;-1.990311980E0;2.359558940E-1;-3.565969944E0
1.199487839E1;-3.119624615E0;-3.334275186E-1;-3.321225643E0
1.201154438E1;-3.369162560E0;1.302817464E0;-3.037066698E0
1.202821036E1;-1.702823877E0;3.599525928E0;-2.492317438E0
1.204487635E1;4.387554526E-1;2.013880968E0;-1.736379743E0
1.206154234E1;1.441701174E0;-9.874994159E-1;-7.902924418E-1
1.207820833E1;1.698296547E0;-2.510160685E0;-2.154495716E-1
1.209487432E1;1.359143257E0;-2.002429247E0;-3.475422785E-2
1.211154031E1;6.739124060E-1;-6.287718415E-1;1.130511016E-1
1.212820630E1;2.139848322E-1;-3.171822429E-1;3.683148921E-1
1.214487229E1;1.171789970E-2;-7.591335177E-1;6.667218804E-1
1.216153828E1;-1.675127149E-1;-9.857683182E-1;1.039031506E0
1.217820427E1;-1.929458827E-1;-7.720498443E-1;1.347425342E0
1.219487026E1;-6.151897460E-2;-3.491401672E-1;1.629853368E0
1.221153625E1;1.490037590E-1;4.367581010E-2;1.946103573E0
1.222820224E1;3.632549047E-1;-1.483379602E-1;2.482064247E0
1.224486823E1;4.524707198E-1;-4.764391780E-1;3.130676746E0
1.226153422E1;8.341014385E-1;-4.567317963E-1;3.690605879E0
1.227820021E1;2.181926250E0;5.484775901E-1;4.027628899E0
1.229486620E1;3.989279270E0;2.133456707E0;3.993806601E0
1.231153219E1;3.982754350E-1;4.080625534E0;3.366632462E0
1.232819818E1;-4.683165073E0;3.149851322E0;2.134655237E0
1.234486417E1;-4.026962757E0;4.039612770E0;1.426388025E0
1.236153016E1;-7.454182506E-1;6.854971647E-1;1.713210225E0
1.237819615E1;4.749744236E-1;-2.111885071E0;1.136902571E0
1.239486214E1;1.259674281E-1;-2.979409218E0;6.793718934E-1
1.241152812E1;-4.608596861E-1;-2.620814800E0;2.125200927E-1
1.242819411E1;-5.271723270E-1;-2.086052418E0;-9.108003974E-2
1.244486010E1;-2.339585274E-1;-1.510943294E0;-3.328948915E-1
1.246152609E1;8.681898564E-2;-8.981503844E-1;-6.889592409E-1
1.247819208E1;2.760364413E-1;-2.151832581E-1;-1.179380059E0
1.249485807E1;4.045338631E-1;3.323622644E-1;-1.705620289E0
1.251152406E1;6.408892274E-1;2.805638015E-1;-2.194576263E0
1.252819005E1;7.916240692E-1;-2.872217000E-1;-2.496179104E0
1.254485604E1;7.824361324E-1;-1.127048969E0;-2.500306845E0
1.256152203E1;8.206524849E-1;-1.488306522E0;-2.210155725E0
1.257818802E1;9.743167758E-1;-6.703171730E-1;-1.549425960E0
1.259485401E1;6.238450408E-1;9.744499326E-1;-3.700459599E-1
1.261152000E1;-4.411523044E-1;1.333710074E0;1.231577873E0
1.262818599E1;-7.576687932E-1;1.823731303E0;2.652905941E0
1.264485198E1;-6.570013762E-1;3.086468220E0;3.297789812E0
1.266151797E1;-1.064331532E0;3.308442593E0;3.445461988E0
1.267818396E1;-7.989477366E-2;4.408726692E0;3.090995550E0
1.269484995E1;1.269794226E0;2.784599066E0;1.904691339E0
1.271151594E1;7.370292544E-1;-2.077397346E0;-1.312138438E0
1.272818193E1;9.906952083E-2;-3.034270287E0;-3.683282137E0
1.274484792E1;2.768353820E-1;-3.159039259E0;-4.072369576E0
1.276151391E1;8.700540662E-1;-2.178330898E0;-3.660645247E0
1.277817990E1;1.556749701E0;2.516685426E-2;-3.106308699E0
1.279484588E1;1.612809181E0;1.636245012E0;-2.905373335E0
1.281151188E1;5.327649713E-1;2.344245911E0;-3.358510017E0
1.282817786E1;-8.451535702E-1;1.193494797E0;-3.774495363E0
1.284484385E1;-1.901628733E0;-1.317864299E0;-3.796066999E0
1.286150984E1;-3.490469456E0;-8.936230540E-1;-3.803790092E0
1.287817583E1;-2.859034538E0;2.131193161E0;-3.129877806E0
1.289484182E1;-5.965476632E-1;1.890576601E0;-1.967275620E0
1.291150781E1;1.080709934E0;-9.966872931E-1;-8.817719817E-1
1.292817380E1;1.733716607E0;-2.845585585E0;-9.467530251E-2
1.294483979E1;1.667403936E0;-3.030941486E0;4.881570637E-1
1.296150578E1;8.253130317E-1;-1.605884910E0;9.729851484E-1
1.297817177E1;4.780370742E-2;-6.981471777E-1;1.248355865E0
1.299483776E1;-2.504701018E-1;-7.945535183E-1;1.337038994E0
1.301150375E1;-1.924132407E-1;-1.185638428E0;1.305880070E0
1.302816974E1;-7.257108390E-2;-1.299754858E0;1.376586914E0
1.304483573E1;-5.446160212E-2;-9.900293946E-1;1.776726604E0
1.306150172E1;-4.261054471E-2;-7.539403439E-1;2.357028961E0
1.307816771E1;1.398158539E-2;-8.146603703E-1;2.875545979E0
1.309483370E1;2.749711871E-1;-1.231844187E0;3.413371086E0
1.311149969E1;1.084571600E0;-1.359409571E0;4.077695847E0
1.312816568E1;3.157840967E0;1.193761110E0;4.599275589E0
1.314483167E1;3.452519417E0;5.469196796E0;4.347474098E0
1.316149766E1;-2.700310230E0;6.113547802E0;3.830155373E0
1.317816365E1;-4.533628941E0;3.885149717E0;2.636261225E0
1.319482964E1;-1.483113289E0;2.206693649E0;2.344245911E0
1.321149563E1;1.500690132E-1;-1.356346965E0;1.650892377E0
1.322816161E1;1.934785098E-1;-2.483529091E0;7.021418810E-1
1.324482760E1;-2.492716908E-1;-2.463954687E0;2.628538013E-1
1.326149359E1;-4.390217662E-1;-2.312021494E0;-1.813611388E-1
1.327815958E1;-2.719085515E-1;-2.058888197E0;-6.411555409E-1
1.329482557E1;6.085318699E-2;-1.439304352E0;-1.150085211E0
1.331149156E1;4.030691385E-1;-6.000097394E-1;-1.729721785E0
1.332815755E1;6.608629227E-1;5.779055133E-2;-2.285922527E0
1.334482354E1;8.197203875E-1;2.355564237E-1;-2.670083284E0
1.336148953E1;8.222503662E-1;1.398158520E-1;-2.885799170E0
1.337815552E1;7.183871865E-1;-6.876276731E-1;-2.799779177E0
1.339482151E1;7.933551073E-1;-1.534778595E0;-2.439986467E0
1.341148750E1;1.293363214E0;-1.417466402E0;-1.958487153E0
1.342815349E1;1.733583450E0;6.282392144E-1;-1.326253176E0
1.344481948E1;4.672512710E-1;2.008022070E0;-1.416800618E-1
1.346148547E1;-1.349156380E0;1.333044291E0;1.639840245E0
1.347815146E1;-2.129861593E0;1.027979374E0;3.175151348E0
1.349481745E1;-2.192578793E0;1.242230535E0;4.130027294E0
1.351148344E1;-1.322391629E0;2.567817926E0;4.341482162E0
1.352814943E1;9.045419693E-1;4.411522865E0;2.734798193E0
1.354481542E1;2.837329626E0;3.561176300E0;-1.259674281E-1
1.356148141E1;2.563690186E0;-1.051015735E0;-2.937597752E0
1.357814740E1;1.537574887E0;-4.592351437E0;-4.012714863E0
1.359481338E1;6.861629486E-1;-6.337519646E0;-4.193943024E0
1.361147938E1;-2.681801319E-1;-5.084902763E0;-3.976495981E0
1.362814536E1;-1.082707286E0;-3.837612271E-1;-3.781020164E0
1.364481135E1;-1.538506985E0;3.262103558E0;-3.629220009E0
1.366147734E1;-1.650093436E0;3.539072037E0;-3.524957418E0
1.367814333E1;-1.703356504E0;1.939046144E0;-3.649726391E0
1.369480932E1;-1.837579727E0;8.624640703E-1;-3.490336418E0
1.371147531E1;-1.433578491E0;3.346259296E-1;-2.823481321E0
1.372814130E1;-3.098585606E-1;-2.388853729E-1;-2.045172930E0
1.374480729E1;7.281076908E-1;-1.079777837E0;-1.331446409E0
1.376147328E1;1.188168406E0;-1.633448601E0;-5.921534300E-1
1.377813927E1;9.851025343E-1;-1.445296407E0;2.889527678E-1
1.379480526E1;5.002744198E-1;-1.008005738E0;1.014397264E0
1.381147125E1;1.920137703E-1;-8.998814821E-1;1.384975910E0
1.382813724E1;3.781685978E-2;-9.394294024E-1;1.504019141E0
1.384480323E1;-4.474107176E-2;-5.482112765E-1;1.548360705E0
1.386146922E1;7.536740601E-2;4.261054564E-3;1.548893332E0
1.387813521E1;3.524691164E-1;1.262337416E-1;1.720134497E0
1.389480120E1;5.114597082E-1;-1.862879843E-1;2.254364252E0
1.391146719E1;4.464786351E-1;-4.506065249E-1;2.975281239E0
1.392813318E1;5.914876461E-1;-1.155677915E0;3.528419495E0
1.394479917E1;1.457413793E0;-1.416933775E0;4.145073891E0
1.396146516E1;3.639872789E0;1.021854162E0;4.397141933E0
1.397813115E1;2.075000525E0;4.987830639E0;4.000064850E0
1.399479714E1;-3.245059252E0;4.154661179E0;3.770900249E0
1.401146312E1;-5.284373283E0;2.474873781E0;2.616154432E0
1.402812911E1;-2.282460451E0;2.661827564E0;2.181127310E0
1.404479510E1;-1.676458716E-1;-7.559376955E-1;1.688176513E0
1.406146109E1;3.237069845E-1;-2.228132010E0;6.637924314E-1
1.407812708E1;-3.291664720E-1;-2.533063889E0;2.691122293E-1
1.409479307E1;-8.716519475E-1;-2.203897238E0;-2.783001214E-2
1.411145906E1;-8.495477438E-1;-1.547828078E0;-3.818970025E-1
1.412812505E1;-5.075981021E-1;-5.854955316E-1;-8.298403621E-1
1.414479104E1;-1.652490199E-1;2.459427416E-1;-1.368863821E0
1.416145703E1;1.023984700E-1;7.056040168E-1;-1.925064564E0
1.417812302E1;3.984085917E-1;3.934817612E-1;-2.343446970E0
1.419478901E1;7.368960977E-1;-4.801675975E-1;-2.531599045E0
1.421145500E1;1.057274222E0;-1.519199133E0;-2.447176933E0
1.422812099E1;1.303350091E0;-1.976064086E0;-2.099900961E0
1.424478698E1;1.510011196E0;-9.756483436E-1;-1.550491214E0
1.426145297E1;7.387603521E-1;5.209138989E-1;-4.370244145E-1
1.427811896E1;-9.193225503E-1;5.657881498E-1;1.427852750E0
1.429478495E1;-1.655419707E0;-4.530033767E-1;2.709364891E0
1.431145094E1;-1.271392107E0;4.510059953E-1;2.998317719E0
1.432811693E1;-9.444893599E-1;1.436241746E0;3.018158197E0
1.434478292E1;1.243695319E-1;2.775278091E0;2.597112656E0
1.436144891E1;1.888179779E0;4.505266190E0;1.831055045E0
1.437811490E1;1.480849624E0;3.055309296E0;-1.500690132E-1
1.439478089E1;1.094025731E0;-1.072187901E0;-2.431331158E0
1.441144688E1;1.216264725E0;-3.973167181E0;-3.590471029E0
1.442811286E1;1.104678392E0;-4.225234985E0;-4.001396656E0
1.444477885E1;7.535408735E-1;-2.264883757E0;-3.968240261E0
1.446144484E1;2.042642981E-1;-2.035985142E-1;-3.575157881E0
1.447811083E1;-9.211867452E-1;8.562056422E-1;-3.459443569E0
1.449477682E1;-1.871268749E0;2.736395895E-1;-3.677955866E0
1.451144281E1;-2.676874399E0;-4.892223179E-1;-3.695932150E0
1.452810880E1;-2.913362980E0;1.970604539E0;-3.227881908E0
1.454477479E1;-1.015063047E0;4.089147568E0;-2.239583731E0
1.456144078E1;9.197220206E-1;2.409359932E0;-1.326386333E0
1.457810677E1;1.625059724E0;-3.771033287E-1;-7.330345511E-1
1.459477276E1;1.507747531E0;-1.939978242E0;-2.510027587E-1
1.461143875E1;1.053945184E0;-2.243312120E0;2.837595940E-1
1.462810474E1;5.792371035E-1;-1.570065498E0;9.615336061E-1
1.464477073E1;4.546012580E-1;-6.841655970E-1;1.564206481E0
1.466143672E1;4.848281145E-1;-1.519332230E-1;1.951563001E0
1.467810271E1;4.547344148E-1;1.575258672E-1;1.938247204E0
1.469476870E1;4.014712274E-1;2.890859246E-1;1.737711310E0
1.471143469E1;3.884217441E-1;-1.198421582E-3;1.545963883E0
1.472810068E1;3.628554344E-1;-3.948133290E-1;1.483113289E0
1.474476667E1;2.320943177E-1;-5.087965727E-1;1.735980272E0
1.476143266E1;2.024000883E-2;-1.840242893E-1;2.412156343E0
1.477809865E1;2.749711871E-1;1.074318409E0;3.231876612E0
1.479476464E1;1.586310744E0;3.513106346E0;4.076497555E0
1.481143063E1;2.438521624E0;4.852941513E0;4.244942665E0
1.482809661E1;-6.508761048E-1;3.400454760E0;2.536525965E0
1.484476260E1;-4.713924885E0;1.943040848E0;5.944170952E-1
1.486142859E1;-3.461840630E0;1.499358535E0;5.001412630E-1
1.487809458E1;-2.183790505E-1;-1.484578013E0;9.673925638E-1
1.489476057E1;1.020123124E0;-2.945054531E0;6.496776342E-1
1.491142656E1;1.136236787E0;-3.079011440E0;3.311638236E-1
1.492809255E1;6.604634523E-1;-2.394579411E0;1.091895252E-1
1.494475854E1;1.282311082E-1;-1.602822304E0;-1.311605871E-1
1.496142453E1;-2.017343044E-1;-1.154745817E0;-4.087949097E-1
1.497809052E1;-2.771016955E-1;-9.808415174E-1;-8.422240615E-1
1.499475651E1;-1.616537571E-1;-9.282441139E-1;-1.411474347E0
1.501142250E1;5.459476262E-2;-4.246407151E-1;-2.058488846E0
1.502808849E1;2.358227372E-1;1.723063886E-1;-2.597112656E0
1.504475448E1;4.271707237E-1;-1.133174226E-1;-2.831470728E0
1.506142047E1;7.507445216E-1;-5.279712677E-1;-2.751842260E0
1.507808646E1;7.243793011E-1;-3.945470154E-1;-2.136918783E0
1.509475245E1;-2.114548385E-1;1.359542757E-1;-8.467514515E-1
1.511141844E1;-1.407080054E0;7.070687413E-2;1.019590497E0
1.512808443E1;-9.258472323E-1;1.417732716E0;3.336405754E0
1.514475042E1;2.656501234E-1;3.670365810E0;4.716321468E0
1.516141641E1;-6.901576519E-1;3.218294621E0;4.517250538E0
1.517808240E1;-1.066328883E0;3.114564657E0;3.711644888E0
1.519474838E1;1.090297341E0;2.545980215E0;1.662343860E0
1.521141438E1;3.076747656E0;3.034669757E-1;-1.096023083E0
1.522808036E1;1.391900063E0;-3.660512209E0;-3.417365789E0
1.524474635E1;1.818937659E-1;-4.688890934E0;-4.421243668E0
1.526141234E1;-3.380880356E-1;-4.671846867E0;-5.041893005E0
1.527807833E1;-1.098286867E0;-3.924298048E0;-4.819252491E0
1.529474432E1;-1.860616088E0;-1.326120019E0;-4.187684536E0
1.531141031E1;-1.996037722E0;4.629902244E-1;-3.347590923E0
1.532807630E1;-1.830522418E0;1.162202597E0;-2.706834793E0
1.534474229E1;-1.344362736E0;1.551689625E0;-2.325870037E0
1.536140828E1;-4.557996690E-1;1.553820133E0;-1.904025555E0
1.537807427E1;6.021402478E-1;3.528685868E-1;-1.602422833E0
1.539474026E1;1.067926764E0;-1.140497923E0;-1.222523212E0
1.541140625E1;8.287751079E-1;-1.398957491E0;-8.483493328E-1
1.542807224E1;8.788424730E-2;-6.412886977E-1;-5.322323442E-1
1.544473823E1;-5.291697383E-1;-3.633880615E-1;-3.568633199E-1
1.546140422E1;-8.121303916E-1;-5.348954797E-1;-1.653821766E-1
1.547807021E1;-8.705866933E-1;-6.474139690E-1;9.720530361E-3
1.549473620E1;-7.065361142E-1;-9.648625255E-1;2.720417082E-1
1.551140219E1;-4.262386262E-1;-1.120923638E0;8.219840527E-1
1.552806818E1;-5.379581451E-2;-1.206411123E0;1.715074420E0
1.554473417E1;2.841590643E-1;-9.431577921E-1;2.543450117E0
1.556140016E1;3.245059252E-1;2.205095738E-1;3.254646778E0
1.557806615E1;5.660544634E-1;6.382260919E-1;3.988214016E0
1.559473214E1;1.614806533E0;1.020788908E0;5.220724106E0
1.561139813E1;4.095672607E0;4.007388592E0;6.407693863E0
1.562806411E1;1.709082365E0;6.153362274E0;6.144440651E0
1.564473010E1;-2.767554998E0;4.030824661E0;3.628288031E0
1.566139609E1;-2.790324926E0;1.299888015E0;1.771134019E0
1.567806208E1;-4.534028471E-1;1.329981685E0;1.697231293E0
1.569472807E1;5.976129174E-1;-1.411474347E-1;1.763677120E0
1.571139406E1;5.119923353E-1;-4.826975763E-1;1.325321078E0
1.572806005E1;-1.957421899E-1;-7.737808824E-1;8.996151686E-1
1.574472604E1;-6.173202991E-1;-1.284707904E0;4.503402114E-1
1.576139203E1;-5.139896870E-1;-1.430782199E0;9.041424841E-2
1.577805802E1;-1.034637317E-1;-1.104811549E0;-4.302333593E-1
1.579472401E1;3.319627941E-1;-7.261103392E-1;-1.114398956E0
1.581139000E1;5.973466039E-1;-3.358243704E-1;-1.785381913E0
1.582805599E1;7.524756193E-1;-2.392848432E-1;-2.255962133E0
1.584472198E1;9.555414915E-1;-8.890956640E-1;-2.442516327E0
1.586138797E1;1.331845880E0;-1.723596573E0;-2.517084837E0
1.587805396E1;1.884850860E0;-1.861148715E0;-2.384459496E0
1.589471995E1;1.657816529E0;-5.744433999E-1;-1.582582355E0
1.591138594E1;1.647163928E-1;3.938812315E-1;-5.179844424E-2
1.592805193E1;-1.443432212E0;2.202432603E-1;1.659148097E0
1.594471792E1;-1.653422356E0;5.495429039E-1;2.110154152E0
1.596138391E1;-1.060469985E0;1.549026489E0;1.763677120E0
1.597804990E1;2.490053698E-2;1.249820590E0;1.547295451E0
1.599471589E1;2.016144514E0;3.072220325E0;1.261804819E0
1.601138188E1;2.675542831E0;5.050415039E0;1.051548362E0
1.602804786E1;4.005391300E-1;1.948899865E0;1.984053478E-2
1.604471385E1;2.663159072E-1;-1.795368671E0;-1.914545059E0
1.606137984E1;9.780451655E-1;-3.888478518E0;-3.535077333E0
1.607804583E1;1.295227408E0;-4.121505260E0;-4.645481586E0
1.609471182E1;7.006771564E-1;-2.293379545E0;-4.730835915E0
1.611137781E1;-3.382211924E-1;-1.167795286E-1;-3.902593374E0
1.612804380E1;-1.692304492E0;1.221591115E0;-3.334275246E0
1.614470979E1;-2.526805401E0;1.842906028E-1;-3.656117916E0
1.616137578E1;-3.192195654E0;9.800425172E-2;-4.013647079E0
1.617804177E1;-2.483129501E0;1.843971372E0;-3.478352070E0
1.619470776E1;-1.850895584E-1;1.028378844E0;-2.327467918E0
1.621137375E1;1.264467955E0;-1.584180236E0;-1.184972644E0
1.622803974E1;1.662876487E0;-2.817222834E0;-2.460758984E-1
1.624470573E1;1.247690082E0;-1.756752849E0;3.607248962E-1
1.626137172E1;5.793702602E-1;-4.942823350E-1;6.338318586E-1
1.627803771E1;1.315600574E-1;-4.135886133E-1;8.237150908E-1
1.629470370E1;3.062633052E-2;-1.218528390E0;9.969536066E-1
1.631136969E1;3.914843872E-2;-1.941709280E0;1.146356821E0
1.632803568E1;4.820318148E-2;-2.258491993E0;1.310540557E0
1.634470167E1;5.739107728E-2;-1.871401906E0;1.470196962E0
1.636136766E1;9.440898895E-2;-9.724525213E-1;1.684048653E0
1.637803365E1;2.077264041E-1;-1.777658761E-1;2.118010521E0
1.639469964E1;4.281028211E-1;2.343579978E-1;2.763959646E0
1.641136563E1;1.066595197E0;1.073253155E-1;3.664906502E0
1.642803161E1;2.181127310E0;1.129578948E0;4.666520596E0
1.644469760E1;3.505383253E0;3.724294901E0;5.022318363E0
1.646136359E1;8.202529699E-2;4.862928391E0;3.956921816E0
1.647802958E1;-5.158006668E0;2.125600338E0;2.635195971E0
1.649469557E1;-4.516451359E0;2.751575947E0;2.137185097E0
1.651136156E1;-1.149952054E0;1.519199133E0;2.525074244E0
1.652802755E1;4.870918095E-1;-7.599324584E-1;1.778457642E0
1.654469354E1;2.382195890E-1;-1.689241767E0;9.950894117E-1
1.656135953E1;-3.982754350E-1;-1.725993395E0;6.452834606E-1
1.657802552E1;-3.564638495E-1;-1.335307956E0;4.407528341E-1
1.659469151E1;1.395495385E-1;-1.110537291E0;9.773793817E-2
1.661135750E1;5.042691827E-1;-1.002146721E0;-4.303665161E-1
1.662802349E1;5.929523706E-1;-9.371656775E-1;-1.064464688E0
1.664468948E1;6.129260659E-1;-8.713856339E-1;-1.663808703E0
1.666135547E1;7.061366439E-1;-9.159935713E-1;-2.133723021E0
1.667802146E1;7.406245470E-1;-9.741836190E-1;-2.450505733E0
1.669468745E1;7.037398219E-1;-4.986765385E-1;-2.701109171E0
1.671135344E1;4.600607455E-1;7.873629928E-1;-2.666354895E0
1.672801943E1;5.291697383E-1;2.636127949E0;-2.588191271E0
1.674468542E1;8.587356806E-1;3.489670515E0;-2.224669933E0
1.676135141E1;2.081258893E-1;2.661161661E0;-1.279248476E0
1.677801740E1;-8.603335619E-1;8.815056682E-1;-4.540686309E-2
1.679468339E1;-1.609347105E0;-9.968204498E-1;1.379782677E0
1.681134938E1;-1.605352283E0;-1.786580324E0;2.613224983E0
1.682801536E1;-1.299621701E0;-6.197171211E-1;3.526688337E0
1.684468135E1;-4.820318148E-2;1.877660275E0;3.514171600E0
1.686134734E1;6.209155321E-1;5.061733246E0;1.739042878E0
1.687801333E1;4.668518007E-1;1.984053493E0;-1.226651073E0
1.689467932E1;1.197622657E0;-2.122271538E0;-3.063032389E0
1.691134531E1;1.953826666E0;-4.083155632E0;-3.578753233E0
1.692801130E1;2.127065182E0;-2.982471943E0;-3.592335224E0
1.694467729E1;1.777925014E0;1.342232227E-1;-2.989662409E0
1.696134328E1;7.518098354E-1;1.979259849E0;-2.474341154E0
1.697800927E1;-7.270424068E-2;2.208691120E0;-3.024283409E0
1.699467526E1;-4.612591565E-1;9.467530251E-2;-4.020305157E0
1.701134125E1;-1.453019619E0;-1.700826526E0;-4.446011066E0
1.702800724E1;-3.320826292E0;-6.351634264E-1;-4.152397633E0
1.704467323E1;-2.830405474E0;1.868206114E-1;-2.816823483E0
1.706133922E1;-7.146587372E-1;-6.504766345E-1;-1.796034455E0
1.707800521E1;1.045289993E0;-1.951829314E0;-1.094957829E0
1.709467120E1;1.691771865E0;-1.929192424E0;-5.324986577E-1
1.711133719E1;1.553953290E0;-2.336922139E-1;6.657897611E-4
1.712800318E1;1.226917386E0;9.816404581E-1;5.432844758E-1
1.714466917E1;1.001880407E0;7.066692710E-1;1.008671522E0
1.716133516E1;6.554034352E-1;4.593949392E-2;1.456481695E0
1.717800115E1;1.809616536E-1;-6.279729009E-1;1.944239259E0
1.719466714E1;-2.665822208E-1;-1.121722579E0;2.338120461E0
1.721133312E1;-4.215780795E-1;-1.217063665E0;2.476871014E0
1.722799911E1;-2.757701278E-1;-6.819018722E-1;2.471944332E0
1.724466510E1;-7.323687430E-3;4.247738719E-1;2.570747375E0
1.726133109E1;2.743053809E-2;1.314668536E0;3.195524693E0
1.727799708E1;4.617917836E-1;1.208408475E0;3.916707993E0
1.729466307E1;1.867540359E0;1.249021649E0;4.747214317E0
1.731132906E1;2.240515709E0;2.825611830E0;4.267579079E0
1.732799505E1;-2.718685865E0;3.385940552E0;2.880605936E0
1.734466104E1;-5.130709171E0;3.121355534E0;2.174602509E0
1.736132703E1;-2.091911554E0;2.389785767E0;2.217612505E0
1.737799302E1;6.021402478E-1;-1.040229917E0;1.809083939E0
1.739465901E1;1.123320460E0;-1.979792476E0;6.347639561E-1
1.741132500E1;4.058654606E-1;-1.755554438E0;1.215732098E-1
1.742799099E1;-2.471411675E-1;-1.414403796E0;-2.604569495E-1
1.744465698E1;-3.697796464E-1;-1.121189952E0;-5.182507634E-1
1.746132297E1;-1.625858694E-1;-7.507445216E-1;-8.025429845E-1
1.747798896E1;2.034653574E-1;-4.111917615E-1;-1.265133739E0
1.749465495E1;5.889576077E-1;-2.362222075E-1;-1.886315584E0
1.751132094E1;8.374303579E-1;-2.625874877E-1;-2.431331158E0
1.752798693E1;9.889641404E-1;-5.613939166E-1;-2.877543449E0
1.754465292E1;9.771130681E-1;-1.243828416E0;-3.079277754E0
1.756131891E1;8.852340579E-1;-1.904691339E0;-2.890193462E0
1.757798490E1;1.148753643E0;-7.993472219E-1;-2.318279982E0
1.759465088E1;1.224387407E0;2.185654640E0;-9.908283353E-1
1.761131688E1;-2.330264151E-1;2.747847557E0;1.174852610E0
1.762798286E1;-1.704155564E0;1.023851514E0;2.913895607E0
1.764464885E1;-2.136386156E0;-2.796317041E-1;3.743735790E0
1.766131484E1;-1.658881783E0;4.796349406E-1;3.453185320E0
1.767798083E1;-1.439570665E0;5.711144805E-1;2.526139498E0
1.769464682E1;4.354265034E-1;1.610012889E0;1.555018544E0
1.771131281E1;3.196989298E0;2.254497290E0;5.118591785E-1
1.772797880E1;1.752358675E0;2.956106514E-2;-6.068007946E-1
1.774464479E1;-9.121319652E-1;-1.896036148E0;-2.187119484E0
1.776131078E1;-5.254412889E-1;-2.771549702E0;-3.412705183E0
1.777797677E1;5.695165992E-1;-2.387788534E0;-4.156525612E0
1.779464276E1;1.463805437E0;-1.408145428E0;-4.267179966E0
1.781130875E1;1.234107971E0;-2.442116886E-1;-3.709514380E0
1.782797474E1;-3.475422785E-2;5.611276031E-1;-3.391000509E0
1.784464073E1;-1.519998074E0;5.326318368E-2;-3.503252745E0
1.786130672E1;-2.614955902E0;-1.012533069E0;-3.570097923E0
1.787797271E1;-3.188866615E0;1.395628572E0;-3.330813169E0
1.789463870E1;-1.428252220E0;2.952644587E0;-2.538789511E0
1.791130469E1;5.282375813E-1;1.651158631E-1;-1.446095347E0
1.792797068E1;1.479251742E0;-2.317348003E0;-5.708481669E-1
1.794463667E1;1.554752231E0;-2.391916275E0;-1.577921808E-1
1.796130266E1;9.536772966E-1;-5.901560783E-1;6.657897611E-4
1.797796865E1;4.344944060E-1;-8.442214131E-2;1.636511236E-1
1.799463464E1;1.221058443E-1;-7.145255804E-1;5.640571117E-1
1.801130062E1;-1.553953290E-1;-1.297491074E0;1.057140946E0
1.802796661E1;-3.661843836E-1;-1.517734408E0;1.514538527E0
1.804463260E1;-3.483411968E-1;-1.383644342E0;1.800029278E0
1.806129859E1;-3.368896246E-2;-8.976177573E-1;1.858885050E0
1.807796458E1;3.834949136E-1;-3.565970063E-1;1.982322454E0
1.809463057E1;6.070671082E-1;2.169143111E-1;2.400971174E0
1.811129656E1;7.440866828E-1;2.990727723E-1;2.901778221E0
1.812796255E1;1.298023701E0;3.564638495E-1;3.605784178E0
1.814462854E1;2.907770157E0;1.701225996E0;4.575040817E0
1.816129453E1;1.987915158E0;4.489154339E0;4.944421291E0
1.817796052E1;-2.469547510E0;4.022568703E0;3.452785730E0
1.819462651E1;-3.497393608E0;1.277650595E0;2.075399876E0
1.821129250E1;-1.368464351E0;1.153014779E0;1.728656530E0
1.822795849E1;2.342248410E-1;-1.592569202E-1;1.468066454E0
1.824462448E1;4.648544192E-1;-1.209740043E0;8.259788156E-1
1.826129047E1;-1.018658355E-1;-1.984586120E0;4.565986395E-1
1.827795646E1;-5.866939425E-1;-2.072337151E0;2.390185297E-1
1.829462245E1;-6.335655451E-1;-1.697897077E0;6.271740049E-2
1.831128844E1;-3.604585826E-1;-1.219860077E0;-2.448774725E-1
1.832795443E1;-5.020054802E-2;-6.865624189E-1;-6.745781898E-1
1.834462042E1;8.801741153E-2;-1.972069293E-1;-1.200552106E0
1.836128641E1;1.327584833E-1;-8.016108721E-2;-1.790974498E0
1.837795240E1;3.139864504E-1;-4.123901725E-1;-2.294178486E0
1.839461838E1;6.008086801E-1;-7.295724154E-1;-2.626141310E0
1.841128438E1;7.527419329E-1;-7.298387289E-1;-2.631733894E0
1.842795036E1;7.949529886E-1;-1.476721764E-1;-2.237319946E0
1.844461635E1;8.406261802E-1;1.546363354E0;-1.330114841E0
1.846128234E1;-1.944106072E-1;2.321342707E0;3.703122735E-1
1.847794833E1;-1.406147957E0;1.448359132E0;2.165281534E0
1.849461432E1;-1.672730207E0;8.781766891E-1;3.329747915E0
1.851128031E1;-8.349003792E-1;2.183923721E0;3.775560617E0
1.852794630E1;-7.452850938E-1;2.101232529E0;3.598061085E0
1.854461229E1;1.006407857E0;2.526672125E0;2.729604959E0
1.856127828E1;3.640804768E0;2.449440479E0;6.608629227E-1
1.857794427E1;1.777525544E0;-7.803056240E-1;-1.999233484E0
1.859461026E1;4.554001987E-1;-2.614955902E0;-2.988996506E0
1.861127625E1;6.399571300E-1;-2.994456053E0;-3.844136953E0
1.862794224E1;8.683230281E-1;-2.425338984E0;-4.531231880E0
1.864460823E1;5.660544634E-1;-1.609480262E0;-4.684496880E0
1.866127422E1;-7.085334659E-1;-4.028028250E-1;-4.370244026E0
1.867794021E1;-2.233990908E0;3.420827985E-1;-3.876094818E0
1.869460620E1;-2.932937145E0;-6.929540038E-1;-3.424156904E0
1.871127219E1;-3.021487236E0;4.081291258E-1;-3.219892502E0
1.872793818E1;-1.129978418E0;3.346791983E0;-2.573144436E0
1.874460417E1;1.062600493E0;2.112950325E0;-1.571929693E0
1.876127016E1;1.839044571E0;-1.303749561E0;-5.161202550E-1
1.877793615E1;1.795235515E0;-2.800311804E0;2.177132517E-1
1.879460214E1;1.325720549E0;-2.059154510E0;5.069323182E-1
1.881126812E1;8.008119464E-1;-5.909550190E-1;4.036017656E-1
1.882793411E1;4.998749495E-1;-3.544664681E-1;5.030707717E-1
1.884460010E1;2.316948473E-1;-9.664604664E-1;8.745814562E-1
1.886126609E1;-6.231792271E-2;-1.316799045E0;1.231178403E0
1.887793208E1;-1.882853508E-1;-1.269794226E0;1.361673236E0
1.889459807E1;-9.147951752E-2;-8.329030275E-1;1.346759558E0
1.891126406E1;5.432844535E-2;-8.775109053E-2;1.451421738E0
1.892793005E1;2.082590461E-1;4.151864946E-1;1.724262357E0
1.894459604E1;1.969406158E-1;1.482048035E-1;2.141046762E0
1.896126203E1;6.609960794E-1;-1.111070037E0;2.679936886E0
1.897792802E1;1.735713959E0;-2.023867846E0;3.547327995E0
1.899459401E1;3.453717947E0;-1.063133121E0;4.687825680E0
1.901126000E1;-1.012000442E-2;3.863045454E0;4.457063198E0
1.902792599E1;-3.327484131E0;3.446394205E0;2.931205988E0
1.904459198E1;-3.670765400E0;3.128146648E0;1.674194932E0
1.906125797E1;-1.182442665E0;1.643435478E0;1.177915215E0
1.907792396E1;4.735096991E-1;-2.520680130E-1;9.542099237E-1
1.909458995E1;4.853607416E-1;-1.130777359E0;3.601922691E-1
1.911125594E1;-2.668485343E-1;-1.710946560E0;2.334259003E-1
1.912792193E1;-6.182523966E-1;-1.521063328E0;6.844318658E-2
1.914458792E1;-4.994754791E-1;-1.157275796E0;-3.656517565E-1
1.916125391E1;-9.068056941E-2;-6.929540038E-1;-7.705850601E-1
1.917791990E1;2.233058959E-1;1.135837361E-1;-1.129179478E0
1.919458589E1;3.764375448E-1;6.902908683E-1;-1.510543823E0
1.921125188E1;6.439518929E-1;5.765739679E-1;-1.833318710E0
1.922791786E1;1.055409908E0;-2.828274965E-1;-1.962348819E0
1.924458385E1;1.368730664E0;-1.156210542E0;-1.834383965E0
1.926124984E1;1.486175895E0;-9.251814485E-1;-1.351952672E0
1.927791583E1;8.392946124E-1;2.459427416E-1;-3.170490861E-1
1.929458182E1;-4.869586527E-1;7.462171912E-1;1.148087859E0
1.931124781E1;-1.380848050E0;2.354232669E-1;2.290849447E0
1.932791380E1;-1.269128442E0;7.291729450E-1;2.441451073E0
1.934457979E1;-9.020119905E-1;1.695899725E0;2.205894709E0
1.936124578E1;-3.177148700E-1;1.817872405E0;1.799762964E0
1.937791177E1;1.779123425E0;3.125483513E0;1.190032601E0
1.939457776E1;3.028011799E0;3.486607790E0;4.338286221E-1
1.941124375E1;7.391598225E-1;3.111901283E-1;-1.341832757E0
1.942790974E1;1.601890177E-1;-2.428268433E0;-2.879274368E0
1.944457573E1;4.538023174E-1;-3.896068573E0;-3.785281181E0
1.946124172E1;7.141261101E-1;-3.747064829E0;-4.534827232E0
1.947790771E1;4.025365114E-1;-2.225735188E0;-4.624176502E0
1.949457370E1;-7.858982682E-1;1.062600464E-1;-3.966642380E0
1.951123969E1;-2.043042421E0;9.127978086E-1;-3.344128847E0
1.952790568E1;-2.592718601E0;-2.790990770E-1;-3.052246571E0
1.954457167E1;-2.941192865E0;5.287702680E-1;-2.913762331E0
1.956123766E1;-1.510943294E0;2.919088602E0;-2.424140692E0
1.957790365E1;5.784381628E-1;1.537574887E0;-1.608281732E0
1.959456964E1;1.601091266E0;-1.099218965E0;-6.996119022E-1
1.961123563E1;1.666072369E0;-2.266215324E0;-2.171806246E-1
1.962790161E1;8.395609260E-1;-1.292164803E0;5.952160433E-2
1.964456760E1;6.045371294E-2;-6.189181805E-1;2.753706574E-1
1.966123359E1;-2.653838098E-1;-1.180977941E0;5.953491926E-1
1.967789958E1;-3.451454341E-1;-1.908686161E0;9.275783300E-1
1.969456557E1;-2.615222335E-1;-1.998834014E0;1.166996360E0
1.971123156E1;5.246423557E-2;-1.361140609E0;1.373391151E0
1.972789755E1;4.262386262E-1;-5.451486707E-1;1.681518674E0
1.974456354E1;6.431529522E-1;2.844253778E-1;2.157957792E0
1.976122953E1;6.609960794E-1;9.077377915E-1;2.911099195E0
1.977789552E1;4.633896947E-1;1.177382588E0;3.773563385E0
1.979456151E1;8.551403880E-1;1.739042878E0;4.370510578E0
1.981122750E1;2.893522263E0;2.790857553E0;4.721914291E0
1.982789349E1;2.694318056E0;4.469713211E0;3.710446358E0
1.984455948E1;-2.636127949E0;2.944654942E0;2.294711113E0
1.986122547E1;-4.863594532E0;-1.379516423E-1;1.623461843E0
1.987789146E1;-2.967425108E0;1.641038656E0;1.191630483E0
1.989455745E1;-5.552686751E-2;2.555301189E-1;1.190165758E0
1.991122344E1;9.271788597E-1;-1.650892377E0;7.084003091E-1
1.992788943E1;6.499440074E-1;-2.535061121E0;1.490037590E-1
1.994455542E1;2.416816950E-1;-2.690855980E0;-1.159805804E-1
1.996122141E1;1.515337527E-1;-2.187652111E0;-3.359575272E-1
1.997788740E1;2.137185186E-1;-1.276185870E0;-6.633929610E-1
1.999455338E1;3.258375227E-1;-1.659148186E-1;-1.038498878E0
2.001121938E1;5.037365556E-1;7.819035053E-1;-1.486309052E0
2.002788536E1;7.174550891E-1;1.264867425E0;-2.021604061E0
2.004455135E1;7.848330140E-1;1.321060061E0;-2.542651176E0
2.006121734E1;6.161218882E-1;7.364966273E-1;-2.747314930E0
2.007788333E1;6.350302696E-1;2.107890397E-1;-2.364219427E0
2.009454932E1;7.977492809E-1;8.994820118E-1;-1.366866350E0
2.011121531E1;2.356895804E-2;1.181776881E0;2.087916732E-1
2.012788130E1;-1.146489978E0;-3.723096550E-1;1.873798728E0
2.014454729E1;-1.008937836E0;-1.571130753E0;3.504717350E0
2.016121328E1;-5.269060135E-1;-1.404017448E0;4.089147568E0
2.017787927E1;-1.329582214E0;-2.383527458E-1;3.777957439E0
2.019454526E1;-4.269044101E-1;1.381513834E0;2.971952438E0
2.021121125E1;2.432795763E0;3.867839098E0;1.197090030E0
2.022787724E1;2.695516586E0;2.936399221E0;-8.918919563E-1
2.024454323E1;1.479384899E-1;-2.877543271E-1;-2.254097939E0
2.026120922E1;2.330264263E-2;-1.194027424E0;-3.465835333E0
2.027787521E1;6.214481592E-1;-1.717737675E0;-4.548675537E0
2.029454120E1;7.447524667E-1;-2.603903770E0;-5.179444790E0
2.031120719E1;-2.340916842E-1;-3.129345179E0;-5.283441544E0
2.032787318E1;-1.724794984E0;-2.793254375E0;-4.391416073E0
2.034453917E1;-2.932138205E0;-1.969805598E0;-3.289933681E0
2.036120516E1;-3.207242489E0;-3.852259517E-1;-2.878475428E0
2.037787115E1;-1.987116218E0;3.268628359E0;-2.828141928E0
2.039453714E1;1.129179448E-1;3.446527243E0;-2.349838495E0
2.041120312E1;1.408278584E0;1.052080989E0;-1.467800140E0
2.042786911E1;1.659813881E0;-9.978857040E-1;-6.012081504E-1
2.044453510E1;1.192962170E0;-1.193361640E0;-9.653951973E-2
2.046120109E1;3.583280444E-1;-3.791007102E-1;1.362205893E-1
2.047786708E1;-2.074600905E-1;-3.917506933E-1;3.310306668E-1
2.049453307E1;-3.825628161E-1;-1.270593166E0;7.099981904E-1
2.051119906E1;-3.773696423E-1;-2.161553144E0;1.310407400E0
2.052786505E1;-2.195774615E-1;-2.168210983E0;1.894171953E0
2.054453104E1;2.203764170E-1;-1.352618456E0;2.144508839E0
2.056119703E1;6.864292622E-1;-3.721764982E-1;2.468215942E0
2.057786302E1;7.681882381E-1;5.759081841E-1;3.293395758E0
2.059452901E1;9.641967416E-1;5.617933869E-1;4.232691765E0
2.061119500E1;1.891908169E0;1.772998214E0;5.406346321E0
2.062786099E1;4.106458187E0;5.997567654E0;5.930988312E0
2.064452698E1;5.073317885E-1;7.318094730E0;4.651074409E0
2.066119297E1;-3.218960524E0;2.592851639E0;2.381796360E0
2.067785896E1;-3.224553108E0;-9.165261984E-1;1.053545713E0
2.069452495E1;-8.495477438E-1;-4.554001987E-2;1.127714753E0
2.071119094E1;4.526038766E-1;-5.041360259E-1;1.263136387E0
2.072785693E1;3.033338189E-1;-9.080041051E-1;5.865607858E-1
2.074452292E1;-2.002695650E-1;-1.344495893E0;2.179795653E-1
2.076118891E1;-5.198486447E-1;-1.807486057E0;-1.937448233E-1
2.077785490E1;-3.470096290E-1;-2.116412640E0;-6.183855534E-1
2.079452088E1;7.856319100E-2;-1.934651971E0;-1.084704757E0
2.081118688E1;4.532696903E-1;-1.237436891E0;-1.584180236E0
2.082785286E1;6.748445034E-1;-4.737760127E-1;-2.126931906E0
2.084451885E1;8.088014126E-1;-4.869586527E-1;-2.641720772E0
2.086118484E1;9.314398766E-1;-1.081642032E0;-3.037599325E0
2.087785083E1;1.163267851E0;-9.993504286E-1;-3.095389843E0
2.089451682E1;1.344762206E0;7.756450772E-1;-2.331995249E0
2.091118281E1;4.404865205E-1;2.109488249E0;-5.849629045E-1
2.092784880E1;-7.552719116E-1;1.255146861E0;1.431581140E0
2.094451479E1;-8.944219947E-1;4.657865167E-1;2.808700800E0
2.096118078E1;-5.703155398E-1;5.447492003E-1;3.192195654E0
2.097784677E1;-9.246488214E-1;1.182708979E0;3.258508205E0
2.099451276E1;-7.550056279E-2;4.120306492E0;3.277416706E0
2.101117875E1;2.482596874E0;5.975463390E0;2.898715496E0
2.102784474E1;3.630418539E0;2.106026173E0;6.093307734E-1
2.104451073E1;9.596694112E-1;-3.551322699E0;-3.792871237E0
2.106117672E1;-4.030691385E-1;-5.152680397E0;-4.901144981E0
2.107784271E1;-7.247787714E-1;-4.982504368E0;-4.558928967E0
2.109450870E1;-8.623309135E-1;-3.142261505E0;-4.282892704E0
2.111117469E1;-1.112934232E0;-3.354249001E-1;-3.988746643E0
2.112784068E1;-1.041827798E0;3.190464675E-1;-3.127081394E0
2.114450667E1;-1.317065358E0;-1.985385120E-1;-2.380198479E0
2.116117266E1;-1.779656053E0;1.010003090E0;-2.512690544E0
2.117783865E1;-1.307078481E0;3.142394543E0;-2.464354277E0
2.119450464E1;-8.908267319E-2;2.126266241E0;-1.895902991E0
2.121117062E1;8.902940750E-1;-5.414202213E-1;-1.085770011E0
2.122783661E1;1.241964221E0;-2.340916872E0;-2.958769798E-1
2.124450260E1;1.069924116E0;-2.627605915E0;3.113232851E-1
2.126116859E1;4.862928391E-1;-2.169542551E0;7.884282470E-1
2.127783458E1;-5.313002318E-2;-1.791640282E0;1.070323586E0
2.129450057E1;-3.243727684E-1;-1.739708662E0;1.120391011E0
2.131116656E1;-4.387554526E-1;-1.279514790E0;1.093626261E0
2.132783255E1;-2.556632757E-1;2.063948289E-2;1.203082085E0
2.134449854E1;1.261005849E-1;9.490167499E-1;1.530917048E0
2.136116453E1;4.297007322E-1;1.403617978E0;2.293778896E0
2.137783052E1;2.864227593E-1;1.621863842E0;3.348389864E0
2.139449651E1;6.443513632E-1;9.532778263E-1;4.448141575E0
2.141116250E1;1.943972945E0;2.426803827E0;5.414868355E0
2.142782849E1;3.418164730E0;4.965460300E0;4.797681332E0
2.144449448E1;4.032022953E-1;4.459326744E0;2.722148180E0
2.146116047E1;-4.479566574E0;1.269927382E0;1.632915974E0
2.147782646E1;-5.248021126E0;1.129578948E0;7.486140132E-1
2.149449245E1;-1.590305448E0;1.030109882E0;1.302950621E0
2.151115844E1;6.845650673E-1;-8.828372359E-1;1.148221016E0
2.152782443E1;8.824377656E-1;-1.857819796E0;3.127880394E-1
2.154449042E1;3.528685868E-1;-2.823880672E0;-2.785664499E-1
2.156115641E1;6.657897681E-2;-2.899248123E0;-6.741787195E-1
2.157782240E1;1.790974438E-1;-2.397908449E0;-9.326383471E-1
2.159448839E1;4.191812575E-1;-1.464604378E0;-1.233575344E0
2.161115438E1;6.137250066E-1;-5.757750273E-1;-1.684980750E0
2.162782036E1;5.950828791E-1;-1.557948142E-1;-2.300969362E0
2.164448635E1;3.494064808E-1;3.527354300E-1;-3.017625570E0
2.166115234E1;1.992042959E-1;3.595264629E-2;-3.473425150E0
2.167781833E1;6.623276472E-1;-3.755054474E-1;-3.461707354E0
2.169448432E1;1.225452662E0;7.348987460E-1;-2.554235935E0
2.171115031E1;7.446193099E-1;1.383111715E0;-1.048485756E0
2.172781630E1;-1.029310971E-1;4.403533638E-1;7.539403439E-1
2.174448229E1;-1.173121557E-1;-2.001364082E-1;2.736795425E0
2.176114828E1;-5.217128396E-1;-1.403617978E0;3.536142588E0
2.177781427E1;-1.568467498E0;-1.465003848E0;3.945470095E0
2.179448026E1;-1.914145589E0;2.374206334E-1;4.113648891E0
2.181114625E1;-6.924213469E-2;1.858086109E0;2.761429787E0
2.182781224E1;3.929890633E0;3.379149437E0;-5.328981280E-1
2.184447823E1;4.667186260E0;2.839859724E0;-3.280745745E0
2.186114422E1;-1.017193675E0;-1.222523212E0;-3.604718924E0
2.187781021E1;-2.721082926E0;-2.983670235E0;-4.160786629E0
2.189447620E1;-2.924415112E0;-3.632815361E0;-5.056673527E0
2.191114219E1;-2.741589069E0;-3.571163177E0;-5.369461536E0
2.192780818E1;-1.978460908E0;-2.682733297E0;-4.629103184E0
2.194447417E1;-8.010782599E-1;-2.316948473E-1;-3.118293047E0
2.196114016E1;5.368928909E-1;2.519881248E0;-1.991377234E0
2.197780615E1;1.218528390E0;3.201117277E0;-1.252883196E0
2.199447214E1;1.101748943E0;1.329582214E0;-3.599259555E-1
2.201113813E1;8.800409436E-1;-7.455514073E-1;1.549958587E-1
2.202780411E1;4.593949318E-1;-1.769003391E0;1.499358565E-1
2.204447010E1;-8.069372177E-2;-1.787778735E0;1.424790081E-2
2.206113609E1;-5.945502520E-1;-1.761147141E0;4.846949503E-2
2.207780208E1;-8.644614220E-1;-1.835049748E0;1.753690243E-1
2.209446807E1;-6.472808123E-1;-1.913879275E0;4.013380706E-1
2.211113406E1;1.877527125E-2;-2.042909384E0;8.202530146E-1
2.212780005E1;7.970834970E-1;-1.782052875E0;1.531316519E0
2.214446604E1;1.239700556E0;-7.737808824E-1;2.235455751E0
2.216113203E1;1.307078481E0;5.643234253E-1;3.043458223E0
2.217779802E1;1.461275458E0;1.253815293E0;3.892872810E0
2.219446401E1;1.978594065E0;2.883934975E0;4.822182178E0
2.221113000E1;3.845468521E0;5.504616737E0;5.301417828E0
2.222779599E1;1.587375998E0;5.587041378E0;4.577703953E0
2.224446198E1;-3.185537815E0;1.586843371E0;2.467816353E0
2.226112797E1;-4.097003937E0;7.025413513E-1;1.467001200E0
2.227779396E1;-1.429317474E0;2.274471045E0;1.547561765E0
2.229445995E1;1.171789970E-2;-3.191796243E-1;1.273123264E0
2.231112594E1;2.190448344E-1;-2.063548803E0;5.199818015E-1
2.232779193E1;-8.069372177E-2;-2.953443527E0;1.051947847E-1
2.234445792E1;-2.119874656E-1;-3.088199377E0;-1.588574350E-1
2.236112391E1;-4.980107397E-2;-2.742920637E0;-4.158523083E-1
2.237778990E1;1.729721874E-1;-2.087783575E0;-7.546061277E-1
2.239445589E1;3.198454082E-1;-1.009337306E0;-1.226784229E0
2.241112188E1;4.050664902E-1;8.082687855E-2;-1.756087065E0
2.242778786E1;4.331628382E-1;5.362271070E-1;-2.328266859E0
2.244445385E1;4.640554786E-1;6.378266215E-1;-2.797781706E0
2.246111984E1;5.447492003E-1;1.896169335E-1;-2.996320248E0
2.247778583E1;1.043958426E0;4.547344148E-1;-2.769685507E0
2.249445182E1;1.311206341E0;2.249437332E0;-1.648894906E0
2.251111781E1;-8.162582666E-2;2.285389900E0;5.779055133E-2
2.252778380E1;-1.374855876E0;5.595297217E-1;1.749296069E0
2.254444979E1;-1.389636397E0;-7.182540298E-1;2.708033323E0
2.256111578E1;-1.502953887E0;-1.716672301E0;3.046520948E0
2.257778177E1;-1.273123264E0;-1.487640619E0;3.488605261E0
2.259444776E1;1.066328883E0;1.917474531E-2;2.800844431E0
2.261111375E1;3.477020502E0;1.895902991E0;1.338237375E-1
2.262777974E1;-1.278316379E-1;3.849463224E0;-1.635579109E0
2.264444573E1;-1.729854941E0;2.293512583E0;-2.617352724E0
2.266111172E1;-4.695149362E-1;-2.153164148E-1;-3.793270588E0
2.267777771E1;8.036082387E-1;-2.294444799E0;-4.477303028E0
2.269444370E1;9.036098719E-1;-2.884733915E0;-4.634829044E0
2.271110969E1;4.460791498E-2;-2.444646835E0;-4.142011166E0
2.272777568E1;-1.256078959E0;-2.240782022E0;-3.269027710E0
2.274444167E1;-2.119874716E0;-1.863945007E0;-2.501904726E0
2.276110766E1;-2.377402067E0;-1.241032109E-1;-2.381130457E0
2.277777365E1;-1.652623415E0;3.733349562E0;-2.487390518E0
2.279443964E1;-1.085237339E-1;3.176882505E0;-1.931189775E0
2.281110562E1;8.278430104E-1;4.077296555E-1;-1.171523690E0
2.282777161E1;9.629983306E-1;-1.776859760E0;-6.776408553E-1
2.284443760E1;4.660528302E-1;-2.178730488E0;-4.283691347E-1
2.286110359E1;-1.749695539E-1;-1.712544441E0;-1.555284858E-1
2.287776958E1;-3.809649050E-1;-1.567269087E0;2.186453640E-1
2.289443557E1;-1.419463754E-1;-1.505217552E0;7.817703485E-1
2.291110156E1;3.516701460E-1;-1.268595815E0;1.613874435E0
2.292776755E1;9.115993381E-1;-7.223818898E-1;2.330796957E0
2.294443354E1;1.390568495E0;-5.246423557E-2;2.566752672E0
2.296109953E1;1.571130753E0;6.454166174E-1;2.706035852E0
2.297776552E1;1.250086904E0;1.366999626E0;3.171822548E0
2.299443151E1;9.470193982E-1;1.558880210E0;3.956655502E0
2.301109750E1;1.412672758E0;2.264084816E0;4.677838802E0
2.302776349E1;2.480333328E0;4.267179966E0;4.967723846E0
2.304442948E1;-5.400886536E-1;4.962264538E0;3.849063873E0
2.306109547E1;-4.547077656E0;2.991260290E0;2.614556551E0
2.307776146E1;-3.280079842E0;2.961699247E0;2.126132965E0
2.309442745E1;-1.071921512E-1;5.960150361E-1;2.046371460E0
2.311109344E1;6.227797270E-1;-1.121855736E0;6.001428962E-1
2.312775943E1;2.452769578E-1;-1.829989791E0;-1.769669205E-1
2.314442542E1;-1.446095407E-1;-2.002828836E0;-3.323622644E-1
2.316109141E1;-1.479384899E-1;-1.780854464E0;-4.346275628E-1
2.317775740E1;5.579318479E-2;-1.247823238E0;-6.139913201E-1
2.319442338E1;2.716422379E-1;-7.608645558E-1;-9.049414396E-1
2.321108938E1;4.008054435E-1;-5.471460223E-1;-1.356480122E0
2.322775536E1;4.324970245E-1;-5.639239550E-1;-1.953027725E0
2.324442135E1;4.837628603E-1;-6.498108506E-1;-2.545447588E0
2.326108734E1;5.953491926E-1;-9.844367504E-1;-2.885666132E0
2.327775333E1;6.584661007E-1;-1.571796536E0;-2.883801937E0
2.329441932E1;9.821730852E-1;-1.009736776E0;-2.547578096E0
2.331108531E1;8.753803968E-1;1.188701034E0;-1.429583788E0
2.332775130E1;-2.569948435E-1;2.158357382E0;3.806985915E-1
2.334441729E1;-1.296692133E0;1.376986384E0;1.999366641E0
2.336108328E1;-1.332777977E0;9.869667888E-1;2.858102322E0
2.337774927E1;-7.251782417E-1;3.728422821E-1;3.094723940E0
2.339441526E1;-5.450155139E-1;-5.054675937E-1;3.099384546E0
2.341108125E1;1.194426894E0;4.756402075E-1;2.640389204E0
2.342774724E1;3.892207146E0;2.416284323E0;9.962878227E-1
2.344441323E1;1.568600655E0;1.820136070E0;-1.257410526E0
2.346107922E1;-1.058206320E0;-2.209090441E-1;-2.273006201E0
2.347774521E1;-5.743102431E-1;-1.709748149E0;-3.256244659E0
2.349441120E1;5.780386925E-1;-2.431863785E0;-4.189682007E0
2.351107719E1;9.507477880E-1;-2.547311783E0;-4.693151951E0
2.352774318E1;-4.633896798E-2;-1.988847256E0;-4.517250538E0
2.354440917E1;-1.541436434E0;-1.789509773E0;-3.729487896E0
2.356107516E1;-2.683931828E0;-1.651425004E0;-2.949581861E0
2.357774115E1;-3.041061401E0;-4.905539155E-1;-2.677007437E0
2.359440714E1;-2.192978382E0;3.691671133E0;-2.764225960E0
2.361107312E1;3.848264739E-2;4.417115688E0;-2.408294678E0
2.362773911E1;1.372991681E0;1.576190710E0;-1.453019619E0
2.364440510E1;1.569666028E0;-1.121056795E0;-6.731134653E-1
2.366107109E1;9.464867711E-1;-1.608015418E0;-4.339617789E-1
2.367773708E1;1.323590130E-1;-1.321326375E0;-2.990727723E-1
2.369440307E1;-3.556649089E-1;-1.612676024E0;7.456845604E-3
2.371106906E1;-4.587291479E-1;-2.182458878E0;4.456796646E-1
2.372773505E1;-1.527321786E-1;-2.524541616E0;1.011734128E0
2.374440104E1;5.069323182E-1;-2.235855341E0;1.849963427E0
2.376106703E1;1.224920034E0;-9.964209795E-1;2.444513798E0
2.377773302E1;1.623461843E0;6.756434441E-1;2.824146986E0
2.379439901E1;1.513073802E0;2.192046165E0;3.465036392E0
2.381106500E1;1.463539124E0;2.626407623E0;4.272639275E0
2.382773099E1;1.809749722E0;3.631350517E0;4.953475952E0
2.384439698E1;2.813494444E0;5.461073875E0;5.370260239E0
2.386106297E1;7.507445216E-1;4.494214058E0;4.135220528E0
2.387772896E1;-3.124817848E0;7.121287584E-1;1.987515688E0
2.389439495E1;-4.636826515E0;-2.300969511E-1;1.597096562E0
2.391106094E1;-2.071138859E0;1.427453279E0;1.539705396E0
2.392772693E1;-8.708529919E-2;-1.004676819E0;1.253016353E0
2.394439292E1;3.916175365E-1;-2.698179722E0;5.480781198E-1
2.396105891E1;-6.471476704E-2;-3.118958712E0;6.950845569E-2
2.397772490E1;-5.819002390E-1;-2.841324329E0;-2.522011697E-1
2.399439088E1;-7.029408216E-1;-2.227865696E0;-4.889560044E-1
2.401105688E1;-5.057339072E-1;-1.436774373E0;-7.937545776E-1
2.402772286E1;-1.988048255E-1;-4.588623047E-1;-1.245026827E0
2.404438885E1;3.129211813E-2;9.840372950E-2;-1.879790902E0
2.406105484E1;2.741722167E-1;3.271690905E-1;-2.537591219E0
2.407772083E1;5.507413149E-1;-5.126581341E-2;-2.841990232E0
2.409438682E1;1.065263629E0;-4.797681272E-1;-2.906971216E0
2.411105281E1;1.544632316E0;1.396693826E0;-2.322940588E0
2.412771880E1;5.547360182E-1;2.401370525E0;-6.056023836E-1
2.414438479E1;-1.279647946E0;1.201883674E0;1.508280158E0
2.416105078E1;-2.274737358E0;-5.379581451E-1;3.140264034E0
2.417771677E1;-2.035585642E0;-7.013429403E-1;3.869836569E0
2.419438276E1;-1.338104248E0;-1.187369466E0;3.910716057E0
2.421104875E1;7.474156022E-1;-6.002760530E-1;2.250902176E0
2.422771474E1;3.487540007E0;2.549309015E0;-6.779071689E-1
2.424438073E1;1.030509472E0;4.840425014E0;-1.296558976E0
2.426104672E1;-2.624543309E-1;1.406414270E0;-1.814543486E0
2.427771271E1;5.579318404E-1;-1.399356961E0;-3.198454142E0
2.429437870E1;1.433179021E0;-3.071820974E0;-4.172904015E0
2.431104469E1;1.363404274E0;-3.185537815E0;-4.532563686E0
2.432771068E1;3.249054030E-2;-1.652223945E0;-4.139614582E0
2.434437667E1;-1.690307140E0;-1.105211005E-1;-3.412438869E0
2.436104266E1;-2.543982744E0;-8.379629850E-1;-2.790990829E0
2.437770865E1;-2.755437613E0;-1.199353695E0;-2.513356447E0
2.439437464E1;-2.505233765E0;2.029194117E0;-2.657699585E0
2.441104063E1;-2.089248300E-1;4.146671772E0;-2.314817905E0
2.442770661E1;1.429583788E0;2.262220383E0;-1.611344457E0
2.444437260E1;1.892440915E0;-6.094639897E-1;-9.940241575E-1
2.446103859E1;1.451954365E0;-1.807352901E0;-6.703171730E-1
2.447770458E1;4.600607455E-1;-1.320527434E0;-4.177165031E-1
2.449437057E1;-3.468764722E-1;-9.189230204E-1;-5.512739345E-2
2.451103656E1;-6.017407775E-1;-1.239301085E0;4.008054435E-1
2.452770255E1;-4.751075804E-1;-1.675260186E0;8.337019682E-1
2.454436854E1;-6.857634336E-2;-1.788045049E0;1.336240053E0
2.456103453E1;5.946834087E-1;-1.459411144E0;1.961949348E0
2.457770052E1;1.063133121E0;-6.567350626E-1;2.576340199E0
2.459436651E1;1.136636257E0;6.918887496E-1;3.456114769E0
2.461103250E1;1.110670447E0;1.180445313E0;4.403933048E0
2.462769849E1;1.503486514E0;2.751309633E0;5.197288036E0
2.464436448E1;3.299920559E0;5.388503075E0;5.282908916E0
2.466103047E1;9.917604327E-1;5.299153805E0;4.117776394E0
2.467769646E1;-3.235338926E0;1.004011035E0;2.318013668E0
2.469436245E1;-4.377168179E0;-1.423192263E0;1.229047894E0
2.471102844E1;-1.688709140E0;2.909501195E-1;1.356613278E0
2.472769443E1;2.605901062E-1;-1.084438443E0;1.408278584E0
2.474436042E1;4.328965247E-1;-2.053162575E0;7.860314250E-1
2.476102641E1;-1.202416345E-1;-2.454900026E0;3.167827725E-1
2.477769240E1;-5.330312848E-1;-2.546779156E0;1.042626798E-1
2.479435839E1;-5.065328479E-1;-2.415352106E0;-6.111950055E-2
2.481102438E1;-1.801627129E-1;-1.819337130E0;-3.719101548E-1
2.482769036E1;1.199753210E-1;-8.084019423E-1;-8.527435660E-1
2.484435635E1;3.271690905E-1;4.125233591E-1;-1.522128582E0
2.486102234E1;4.885565341E-1;1.423458576E0;-2.286455154E0
2.487768833E1;6.383592486E-1;1.384576440E0;-2.802309275E0
2.489435432E1;8.551403880E-1;6.853640079E-1;-2.990727663E0
2.491102031E1;1.118393660E0;1.448225975E0;-2.829207182E0
2.492768630E1;6.712492704E-1;2.380198479E0;-1.798564553E0
2.494435229E1;-5.028044581E-1;1.585378647E0;-2.304964215E-1
2.496101828E1;-1.336905837E0;1.728390306E-1;1.171124220E0
2.497768427E1;-1.378717422E0;-2.553969622E-1;2.150367737E0
2.499435026E1;-1.319994807E0;-1.276319027E0;2.754106045E0
2.501101625E1;-5.495429039E-1;-1.415335894E0;3.409243107E0
2.502768224E1;2.296042681E0;6.331660748E-1;2.763427019E0
2.504434823E1;3.498991489E0;4.573176861E0;6.993455887E-1
2.506101422E1;5.346291661E-1;4.873580933E0;-1.409343839E0
2.507768021E1;3.945470154E-1;1.355015397E0;-3.096321821E0
2.509434620E1;5.628587008E-1;-1.494165421E0;-4.045072556E0
2.511101219E1;8.772445917E-1;-3.308975220E0;-5.003676414E0
2.512767818E1;3.545996249E-1;-3.929757595E0;-5.468930244E0
2.514434417E1;-1.704155564E0;-3.089131355E0;-4.860531807E0
2.516101016E1;-3.314967394E0;-2.465153217E0;-3.504584312E0
2.517767615E1;-3.697530031E0;-5.194491744E-1;-3.035335541E0
2.519434214E1;-2.119741440E0;3.593134165E0;-3.167960882E0
2.521100813E1;5.874928832E-1;3.575424194E0;-2.610295296E0
2.522767411E1;1.830122948E0;3.679154217E-1;-1.364735842E0
2.524434010E1;1.853026152E0;-1.746899247E0;-3.202448785E-1
2.526100609E1;1.011068344E0;-1.421727538E0;2.703106403E-1
2.527767208E1;2.516685426E-1;-7.344992757E-1;5.001412630E-1
2.529433807E1;-1.145158429E-2;-1.028378844E0;7.483476996E-1
2.531100406E1;5.845634267E-2;-1.664208174E0;1.150351524E0
2.532767005E1;3.183806837E-1;-1.771666646E0;1.664341331E0
2.534433604E1;6.925545335E-1;-1.308010578E0;2.090579987E0
2.536100203E1;1.096688867E0;-5.536707640E-1;2.304165363E0
2.537766802E1;1.233841658E0;3.687143922E-1;2.629869699E0
2.539433401E1;1.048485756E0;1.112534761E0;3.203380823E0
2.541100000E1;1.305746913E0;8.468846083E-1;3.810581207E0
2.542766599E1;2.177531958E0;1.789776087E0;4.568516254E0
2.544433198E1;3.408843756E0;4.206060410E0;4.774910927E0
2.546099797E1;1.824263930E-1;5.092759132E0;4.242678642E0
2.547766396E1;-3.108306170E0;2.019340277E0;2.789659262E0
2.549432995E1;-4.246407032E0;-2.378201038E-1;1.627190232E0
2.551099594E1;-3.254646778E0;1.369529605E0;1.479518056E0
2.552766193E1;-7.648593187E-1;1.238235831E0;1.486442208E0
2.554432792E1;2.794985473E-1;-5.747097135E-1;9.562072754E-1
2.556099391E1;-7.456845790E-2;-2.035053015E0;4.077296555E-1
2.557765990E1;-4.588623047E-1;-2.312953711E0;3.475422785E-2
2.559432588E1;-3.070622385E-1;-2.070073605E0;-3.740406930E-1
2.561099188E1;9.494162351E-2;-1.459677458E0;-9.045419693E-1
2.562765786E1;4.227765203E-1;-5.805686712E-1;-1.457813263E0
2.564432385E1;6.492781639E-1;8.415582776E-2;-2.039580345E0
2.566098984E1;9.262467623E-1;5.046686530E-2;-2.513356447E0
2.567765583E1;1.330647469E0;-7.878956199E-1;-2.740124464E0
2.569432182E1;1.631318092E0;-1.458079576E0;-2.712960243E0
2.571098781E1;1.636511326E0;-3.446127772E-1;-2.324538469E0
2.572765380E1;5.709813237E-1;1.191497326E0;-9.868336320E-1
2.574431979E1;-9.669930935E-1;6.530066133E-1;9.396957159E-1
2.576098578E1;-1.719069242E0;-2.412822098E-1;2.221607208E0
2.577765177E1;-1.714408636E0;-4.988096952E-1;2.808967113E0
2.579431776E1;-1.178847432E0;-5.048018098E-1;3.371160030E0
2.581098375E1;1.680320263E0;1.128513694E0;2.916425467E0
2.582764974E1;2.795384884E0;4.656134129E0;1.000815153E0
2.584431573E1;1.655153334E-1;3.230944633E0;-1.027047276E0
2.586098172E1;-2.410159074E-2;-9.242493510E-1;-2.761829138E0
2.587764771E1;8.870983124E-1;-2.849447012E0;-3.713509083E0
2.589431370E1;1.533313870E0;-2.405631542E0;-4.170373917E0
2.591097969E1;1.693902373E0;-9.966872931E-1;-4.421110630E0
2.592764568E1;3.475422561E-1;-2.250369452E-2;-4.305130005E0
2.594431167E1;-1.769802332E0;-8.262451291E-1;-3.836413860E0
2.596097766E1;-3.207242489E0;-2.381263733E0;-3.460375786E0
2.597764365E1;-3.849063873E0;-9.507477880E-1;-3.369562149E0
2.599430964E1;-2.138250351E0;2.312421083E0;-2.957438231E0
2.601097562E1;4.446144104E-1;1.814809799E0;-2.193777323E0
2.602764161E1;1.550358057E0;-6.681866050E-1;-1.263935328E0
2.604430760E1;1.606417537E0;-1.702424407E0;-4.721781015E-1
2.606097359E1;9.311735630E-1;-9.226514697E-1;1.518000662E-1
2.607763958E1;5.099949613E-2;2.543316968E-2;4.483428299E-1
2.609430557E1;-3.528685868E-1;-3.069290817E-1;7.044056058E-1
2.611097156E1;-3.624559641E-1;-1.235705853E0;1.051548362E0
2.612763755E1;-2.033322006E-1;-1.771799803E0;1.446095347E0
2.614430354E1;4.966791719E-2;-1.598827600E0;1.769669175E0
2.616096953E1;4.536691606E-1;-9.353014827E-1;1.937581420E0
2.617763552E1;6.972150803E-1;-6.697845459E-2;2.350903749E0
2.619430151E1;6.528734565E-1;1.149818897E0;2.954508781E0
2.621096750E1;8.705866933E-1;1.157941580E0;3.743203163E0
2.622763349E1;1.963280916E0;1.702957034E0;4.951478481E0
2.624429948E1;3.193394184E0;4.419379234E0;5.223520279E0
2.626096547E1;-1.693369746E0;5.743901730E0;4.324171543E0
2.627763146E1;-3.998733282E0;2.837196589E0;2.459826946E0
2.629429745E1;-3.372092009E0;1.278050065E0;1.623328686E0
2.631096344E1;-3.930822909E-1;1.569932252E-1;1.868339300E0
2.632762943E1;8.748477697E-1;-1.771267176E0;1.056874633E0
2.634429542E1;8.510124683E-1;-2.253698349E0;4.803007543E-1
2.636096141E1;2.518016994E-1;-2.100566626E0;1.961416751E-1
2.637762740E1;-1.499358565E-1;-1.949565649E0;-4.340949282E-2
2.639429338E1;-1.294295341E-1;-1.491369128E0;-3.969438672E-1
2.641095938E1;1.446095407E-1;-6.876276731E-1;-8.442214131E-1
2.642762536E1;5.366265774E-1;6.817687303E-2;-1.477387547E0
2.644429135E1;8.096003532E-1;5.535376072E-1;-2.163816690E0
2.646095734E1;8.341014385E-1;3.993407190E-1;-2.737461329E0
2.647762333E1;5.996102691E-1;-4.511391521E-1;-2.967691422E0
2.649428932E1;6.407560706E-1;-9.102677703E-1;-2.820152283E0
2.651095531E1;1.272590518E0;1.359542757E-1;-2.170874119E0
2.652762130E1;8.819051385E-1;1.001880407E0;-1.004543662E0
2.654428729E1;-2.383527346E-2;4.351601899E-1;4.030691385E-1
2.656095328E1;-4.765723348E-1;-1.998700947E-1;1.883119822E0
2.657761927E1;-2.314285189E-1;5.647228956E-1;2.840259075E0
2.659428526E1;-1.165265322E0;5.323655009E-1;2.747980833E0
2.661095125E1;-1.656085491E0;9.736509919E-1;2.923349857E0
2.662761724E1;-7.910913825E-1;1.415202737E0;2.966759205E0
2.664428323E1;2.551173210E0;9.438235760E-1;1.764742374E0
2.666094922E1;5.061733246E0;2.100699902E0;-1.304681659E0
2.667761521E1;-6.506097913E-1;1.714009166E0;-3.538140059E0
2.669428120E1;-2.411091089E0;-5.608612895E-1;-4.074766636E0
2.671094719E1;-1.998168230E0;-2.682866573E0;-4.492882729E0
2.672761318E1;-1.416800618E0;-3.373956203E0;-4.950679779E0
2.674427917E1;-4.555333555E-1;-3.698328972E0;-4.916990757E0
2.676094516E1;-2.725743353E-1;-3.025082350E0;-3.976229668E0
2.677761115E1;-1.048485756E0;-7.150582224E-2;-2.533862829E0
2.679427714E1;-1.288569570E0;3.821500063E0;-2.171273708E0
2.681094312E1;-4.877575934E-1;5.250285149E0;-2.185122013E0
2.682760911E1;6.274402738E-1;1.842639804E0;-1.356879592E0
2.684427510E1;1.232909560E0;-1.742238641E0;-6.438187361E-1
2.686094109E1;1.143959999E0;-2.904707670E0;-4.315649271E-1
2.687760708E1;4.311654568E-1;-1.867673516E0;-3.414169848E-1
2.689427307E1;-1.894837767E-1;-1.016927361E0;2.356895804E-2
2.691093906E1;-3.978759646E-1;-8.325035572E-1;3.478085697E-1
2.692760505E1;-1.547295451E-1;-1.141430020E0;6.185187101E-1
2.694427104E1;3.005374968E-1;-1.647030711E0;1.155811071E0
2.696093703E1;7.356976867E-1;-1.850629210E0;1.787246108E0
2.697760302E1;9.607346654E-1;-1.247157454E0;2.244111061E0
2.699426901E1;1.024650455E0;-2.062616795E-1;2.836264372E0
2.701093500E1;1.197888970E0;3.724428117E-1;3.700859070E0
2.702760099E1;1.708682895E0;9.924262166E-1;4.756268978E0
2.704426698E1;2.903642416E0;4.107390404E0;5.460142136E0
2.706093297E1;2.552504778E0;6.539120674E0;4.742021084E0
2.707759896E1;-2.838794470E0;2.900846004E0;3.029609680E0
2.709426495E1;-4.631366730E0;-2.344911546E-1;1.552089095E0
2.711093094E1;-2.935866594E0;6.773745418E-1;1.418531656E0
2.712759693E1;3.968106955E-2;-5.632581711E-1;1.755421281E0
2.714426292E1;6.969487667E-1;-1.738643408E0;8.627303839E-1
2.716092891E1;3.277017176E-1;-2.254097939E0;2.573943138E-1
2.717759490E1;-1.643169224E-1;-2.345976830E0;-7.004108280E-2
2.719426089E1;-2.081258893E-1;-2.297906876E0;-2.948117256E-1
2.721092688E1;6.657897611E-4;-2.105227232E0;-5.936181545E-1
2.722759286E1;2.753706574E-1;-1.501888633E0;-1.055543065E0
2.724425885E1;4.472775757E-1;-5.350286365E-1;-1.734515548E0
2.726092484E1;5.748428702E-1;1.378184855E-1;-2.444380522E0
2.727759083E1;6.202497482E-1;5.898897648E-1;-2.997785091E0
2.729425682E1;5.679186583E-1;7.247787714E-1;-3.155710459E0
2.731092281E1;1.010535717E0;7.652587891E-1;-2.954109192E0
2.732758880E1;1.765275002E0;2.067277193E0;-2.074867249E0
2.734425479E1;6.663224101E-1;2.259557247E0;-5.334307551E-1
2.736092078E1;-9.502151608E-1;7.568697929E-1;1.144093156E0
2.737758677E1;-1.925730348E0;-8.752472401E-1;2.551306486E0
2.739425276E1;-2.147438288E0;-1.978327751E0;3.202049255E0
2.741091875E1;-1.801760316E0;-2.547178507E0;3.635478497E0
2.742758474E1;-2.816290855E-1;-1.271392107E0;3.386206865E0
2.744425073E1;2.783267498E0;2.288718939E0;1.249820590E0
2.746091672E1;3.269560337E0;4.906338215E0;-1.357145905E0
2.747758271E1;-3.751059473E-1;2.942391396E0;-2.122005224E0
2.749424870E1;-1.969406158E-1;-5.625923872E-1;-3.247456312E0
2.751091469E1;7.311703563E-1;-2.797382355E0;-4.312719822E0
2.752758068E1;7.231808305E-1;-3.387405157E0;-5.041360378E0
2.754424667E1;-6.344976425E-1;-2.036517859E0;-4.639888763E0
2.756091266E1;-1.754622340E0;-1.595099092E0;-3.298988342E0
2.757757865E1;-2.401770115E0;-1.459144831E0;-2.293645859E0
2.759424464E1;-2.614689589E0;1.026780963E0;-2.654503822E0
2.761091063E1;-1.399756432E0;4.427635193E0;-3.063964605E0
2.762757661E1;3.246390820E-1;3.194326162E0;-2.460625887E0
2.764424260E1;1.157009482E0;-4.053328037E-1;-1.409743309E0
2.766090859E1;1.216131568E0;-2.582199097E0;-6.399571300E-1
2.767757458E1;6.558029056E-1;-2.203764200E0;-2.280995846E-1
2.769424057E1;-5.858949944E-2;-9.984183311E-1;2.902843431E-2
2.771090656E1;-2.924148738E-1;-7.889608741E-1;4.183822870E-1
2.772757255E1;-1.239700541E-1;-1.272324204E0;9.824393988E-1
2.774423854E1;1.990711391E-1;-1.612942338E0;1.596963406E0
2.776090453E1;5.779055357E-1;-1.453019619E0;2.126132965E0
2.777757052E1;9.616667628E-1;-8.119972348E-1;2.369279385E0
2.779423651E1;1.008272052E0;2.033322006E-1;2.750111341E0
2.781090250E1;8.314382434E-1;1.362205863E0;3.390334606E0
2.782756849E1;9.904288650E-1;1.234241128E0;4.274902821E0
2.784423448E1;1.688043356E0;2.116412640E0;5.183040142E0
2.786090047E1;2.615621805E0;4.436822891E0;4.941491604E0
2.787756646E1;-2.015345573E0;4.910465717E0;3.897000790E0
2.789423245E1;-4.767720699E0;2.331995249E0;2.439187527E0
2.791089844E1;-3.147854090E0;1.594166994E0;1.793770790E0
2.792756443E1;-9.587372653E-3;-8.977509141E-1;1.817872405E0
2.794423042E1;5.430181623E-1;-2.280596256E0;9.388967156E-1
2.796089641E1;3.153180480E-1;-2.595648050E0;4.852275848E-1
2.797756240E1;7.044056058E-2;-2.407762051E0;1.908153445E-1
2.799422839E1;4.500738904E-2;-2.157957792E0;5.539371073E-2
2.801089438E1;1.585911214E-1;-1.698429704E0;-1.536642760E-1
2.802756036E1;2.701774836E-1;-8.438219428E-1;-4.838960171E-1
2.804422635E1;2.199769467E-1;-2.929474926E-3;-9.266462326E-1
2.806089234E1;-4.407528415E-2;3.274354041E-1;-1.414936423E0
2.807755833E1;-1.759016514E-1;-1.937448233E-1;-1.982855082E0
2.809422432E1;-4.407528415E-2;-1.764209747E0;-2.424273729E0
2.811089031E1;4.731102288E-1;-2.536126375E0;-2.648644924E0
2.812755630E1;1.340767503E0;-3.054643571E-1;-2.380065203E0
2.814422229E1;9.261136055E-1;1.963280916E0;-1.360075355E0
2.816088828E1;1.384842768E-2;2.314684629E0;3.070622385E-1
2.817755427E1;-5.900229216E-1;3.023085117E0;1.960750937E0
2.819422026E1;-1.077114701E0;3.189266205E0;2.479800701E0
2.821088625E1;-1.232243776E0;2.348639965E0;2.743053913E0
2.822755224E1;3.597927988E-1;2.146639347E0;3.271025181E0
2.824421823E1;4.306594372E0;2.112684011E0;2.448508501E0
2.826088422E1;3.249054193E0;5.808349848E-1;-3.512706757E-1
2.827755021E1;-2.192312479E0;-4.727107286E-1;-2.805904388E0
2.829421620E1;-1.897634029E0;-1.323989511E0;-4.045738220E0
2.831088219E1;-2.982738316E-1;-2.232792616E0;-4.534427643E0
2.832754818E1;8.123967052E-1;-2.205761433E0;-4.493415356E0
2.834421417E1;9.550088644E-1;-1.169792652E0;-3.892606497E0
2.836088016E1;6.364950538E-1;-4.615254700E-1;-3.298988342E0
2.837754615E1;-6.842987537E-1;6.410223842E-1;-3.104311466E0
2.839421214E1;-1.828791380E0;4.070638716E-1;-2.993657112E0
2.841087813E1;-2.405365229E0;3.062632866E-3;-2.900712967E0
2.842754411E1;-1.928792953E0;8.796414733E-1;-2.599509716E0
2.844421010E1;-1.861548275E-1;4.861596823E-1;-1.952361941E0
2.846087609E1;1.035436273E0;-6.695181727E-1;-1.208009005E0
2.847754208E1;1.342099071E0;-9.238498807E-1;-6.648576856E-1
2.849420807E1;1.006407857E0;-4.177165031E-1;-2.965427637E-1
2.851087406E1;5.434176326E-1;-4.973449707E-1;1.520663798E-1
2.852754005E1;2.157158852E-1;-1.180711627E0;6.378266215E-1
2.854420604E1;5.739107728E-2;-1.819869757E0;1.181776881E0
2.856087203E1;6.924213842E-3;-1.964079857E0;1.882986665E0
2.857753802E1;1.471395344E-1;-1.606683850E0;2.529601574E0
2.859420401E1;4.861596823E-1;-1.084172130E0;2.836131334E0
2.861087000E1;7.221155763E-1;-1.615206003E-1;3.031873465E0
2.862753599E1;7.371624112E-1;8.462188244E-1;3.664640188E0
2.864420198E1;1.108806252E0;1.294827938E0;4.528568745E0
2.866086797E1;1.826128244E0;3.442532539E0;5.324453831E0
2.867753396E1;1.748097658E0;6.032321453E0;5.071054459E0
2.869419995E1;-3.603254318E0;4.209921837E0;3.481947422E0
2.871086594E1;-5.419129372E0;1.974333048E0;2.306562185E0
2.872753193E1;-1.978727221E0;6.944187284E-1;2.534794807E0
2.874419792E1;5.925529003E-1;-2.485659599E0;1.482580662E0
2.876086391E1;9.717867374E-1;-3.054377079E0;4.178496599E-1
2.877752990E1;5.488771200E-1;-2.773813248E0;1.207742617E-1
2.879419588E1;1.925463974E-1;-2.277400494E0;-1.278316416E-2
2.881086188E1;1.283642650E-1;-1.800695062E0;-2.568616867E-1
2.882752786E1;1.094558388E-1;-1.348490596E0;-6.446176767E-1
2.884419385E1;-4.061317816E-2;-9.278446436E-1;-1.121189952E0
2.886085984E1;-1.850895584E-1;-8.141277432E-1;-1.697231293E0
2.887752583E1;-2.174469382E-1;-9.584709406E-1;-2.296175718E0
2.889419182E1;-1.402153224E-1;-1.187236309E0;-2.820684910E0
2.891085781E1;3.054643571E-1;-1.806953430E0;-3.203514099E0
2.892752380E1;1.276851654E0;-8.299735188E-1;-3.640005827E0
2.894418979E1;1.413338542E0;1.231977344E0;-3.315899372E0
2.896085578E1;4.498075843E-1;3.011234045E0;-1.978860378E0
2.897752177E1;-1.171923161E0;3.076348305E0;-6.058686972E-2
2.899418776E1;-1.966742992E0;2.009353638E0;1.672330737E0
2.901085375E1;-1.255013704E0;1.727058649E0;2.569815397E0
2.902751974E1;-6.938861012E-1;1.119725227E0;2.770218134E0
2.904418573E1;2.623211779E-2;1.079644680E0;3.217229366E0
2.906085172E1;2.145441055E0;1.883785605E0;3.456514120E0
2.907751771E1;4.572777271E0;2.412688971E0;1.585511804E0
2.909418370E1;-5.126581192E-1;4.555333555E-1;-2.614290237E0
2.911084969E1;-1.615871787E0;-1.119458914E0;-3.993407011E0
2.912751568E1;-4.788360000E-1;-3.284740448E0;-4.045738220E0
2.914418167E1;7.833682299E-1;-3.507513762E0;-3.948266506E0
2.916084766E1;7.882950902E-1;-1.397492766E0;-3.466367960E0
2.917751365E1;1.274321675E-1;7.536740601E-2;-2.599376440E0
2.919417964E1;-9.763141274E-1;4.904207587E-1;-2.419480085E0
2.921084562E1;-2.042509794E0;4.085285962E-1;-2.850112915E0
2.922751161E1;-2.714291811E0;1.895769835E0;-3.249586821E0
2.924417760E1;-1.398424864E0;3.441067934E0;-2.803773880E0
2.926084359E1;5.008070469E-1;9.700556993E-1;-2.071538210E0
2.927750958E1;1.630519152E0;-2.211354256E0;-1.452087522E0
2.929417557E1;1.680719733E0;-3.236004591E0;-1.119458914E0
2.931084156E1;8.543414474E-1;-1.982588768E0;-7.699192762E-1
2.932750755E1;-6.045371294E-2;-7.257108688E-1;-1.878858805E-1
2.934417354E1;-4.849612713E-1;-6.604634523E-1;5.182507634E-1
2.936083953E1;-3.470096290E-1;-1.188834190E0;1.129445791E0
2.937750552E1;1.508679688E-1;-1.751559734E0;1.631717563E0
2.939417151E1;7.404913902E-1;-1.729189157E0;2.047969341E0
2.941083750E1;1.078179955E0;-1.048885226E0;2.336922169E0
2.942750349E1;1.073652625E0;-3.182475269E-2;2.764891863E0
2.944416948E1;8.922914863E-1;8.399603963E-1;3.351718903E0
2.946083547E1;1.212536335E0;9.793767333E-1;4.127230644E0
2.947750146E1;2.317614317E0;2.615888119E0;5.101414204E0
2.949416745E1;3.261437893E0;6.210087776E0;5.179444790E0
2.951083344E1;-1.886848211E0;5.145756245E0;3.982221842E0
2.952749943E1;-3.991276503E0;1.604420185E0;2.127331495E0
2.954416542E1;-3.084470987E0;1.029044628E0;1.513473272E0
2.956083141E1;-4.629902244E-1;-5.805686861E-2;1.532781243E0
2.957749740E1;4.359591305E-1;-1.682583928E0;6.291713119E-1
2.959416338E1;3.747064769E-1;-2.379798889E0;8.149266988E-2
2.961082938E1;1.082574204E-1;-2.576872826E0;-2.613890767E-1
2.962749536E1;9.134636074E-2;-2.623477936E0;-5.211802125E-1
2.964416135E1;3.067959249E-1;-2.352900982E0;-8.709861636E-1
2.966082734E1;4.609928429E-1;-1.710280776E0;-1.284308434E0
2.967749333E1;4.142543972E-1;-8.077361584E-1;-1.751692891E0
2.969415932E1;2.918822467E-1;-3.808317482E-1;-2.336655855E0
2.971082531E1;1.464737505E-1;-4.319643974E-1;-2.985401392E0
2.972749130E1;9.906952083E-2;-6.976145506E-1;-3.402984619E0
2.974415729E1;5.330312848E-1;-5.865607858E-1;-3.242928743E0
2.976082328E1;8.994820118E-1;1.615472317E0;-2.140380859E0
2.977748927E1;6.391581893E-2;2.736662388E0;-3.640538454E-1
2.979415526E1;-8.162582517E-1;1.791507125E0;1.747565031E0
2.981082125E1;2.069274634E-1;1.818671346E0;3.939877510E0
2.982748724E1;5.584644675E-1;4.063980877E-1;4.339750767E0
2.984415323E1;-7.579351068E-1;1.230379492E-1;3.812711716E0
2.986081922E1;-9.024114609E-1;9.074714780E-1;3.591669559E0
2.987748521E1;8.862993717E-1;4.511391521E-1;2.108023643E0
2.989415120E1;3.934284925E0;1.460609555E0;-1.319728494E0
2.991081719E1;1.654221296E0;1.232643247E0;-3.468498468E0
2.992748318E1;-3.281810999E0;-8.495477587E-2;-3.173686743E0
2.994414917E1;-3.401120424E0;-1.966743022E-1;-3.895535946E0
2.996081516E1;-1.694701314E0;-1.192829013E0;-4.880904675E0
2.997748115E1;3.475422785E-2;-2.567418575E0;-5.453351021E0
2.999414714E1;1.004943132E0;-3.887945890E0;-5.348155975E0
3.001081313E1;-1.727058738E-1;-2.744119167E0;-3.768370152E0
3.002747911E1;-1.514937997E0;-2.428801060E-1;-1.707617640E0
3.004414510E1;-1.672463894E0;3.342664242E0;-1.480183840E0
3.006081109E1;-4.162517786E-1;3.167827845E0;-1.453685403E0
3.007747708E1;8.492814302E-1;5.838976502E-1;-7.862977386E-1
3.009414307E1;1.519465446E0;-1.566070676E0;-1.109205782E-1
3.011080906E1;1.501222730E0;-1.666205525E0;1.344895363E-2
3.012747505E1;9.664604664E-1;-8.089345694E-1;-1.553953290E-1
3.014414104E1;3.527354300E-1;-3.968107104E-1;-2.006690353E-1
3.016080703E1;-6.218476593E-2;-4.828307331E-1;-3.994738800E-4
3.017747302E1;-3.171822429E-1;-6.677871346E-1;4.063980877E-1
3.019413901E1;-3.591270149E-1;-8.214514256E-1;9.900293946E-1
3.021080500E1;-1.464737486E-2;-9.282441139E-1;1.512274861E0
3.022747099E1;4.561991692E-1;-6.820350289E-1;1.989912510E0
3.024413698E1;7.693866491E-1;-9.321057238E-3;2.618684292E0
3.026080297E1;1.207476377E0;-4.671181142E-1;3.486607790E0
3.027746896E1;2.082324028E0;-6.862961054E-1;4.805271149E0
3.029413495E1;3.966509104E0;2.676341772E0;5.834582329E0
3.031080094E1;1.804290295E0;7.396657944E0;4.838427544E0
3.032746693E1;-3.291131973E0;6.144573689E0;3.375021458E0
3.034413292E1;-4.631100655E0;2.173004627E0;1.388437986E0
3.036079891E1;-2.397775412E0;6.673876643E-1;8.901609182E-1
3.037746490E1;8.189214021E-2;-8.555398583E-1;1.194959521E0
3.039413089E1;5.426186919E-1;-1.607615948E0;5.528718233E-1
3.041079688E1;-1.464737486E-2;-2.020139456E0;1.451421678E-1
3.042746286E1;-5.440834165E-1;-2.004160404E0;-2.640522122E-1
3.044412885E1;-5.585976243E-1;-1.998301387E0;-6.428865790E-1
3.046079484E1;-1.878858805E-1;-1.751692891E0;-1.042360425E0
3.047746083E1;1.511342824E-1;-1.184706330E0;-1.528653383E0
3.049412682E1;3.600591123E-1;-4.869586527E-1;-2.139715195E0
3.051079281E1;5.249086618E-1;-1.399490088E-1;-2.716688633E0
3.052745880E1;6.578003168E-1;-5.343628526E-1;-3.081274986E0
3.054412479E1;6.237118840E-1;-1.515870214E0;-3.063165665E0
3.056079078E1;6.760429144E-1;-1.397892237E0;-2.590987444E0
3.057745677E1;6.495444775E-1;6.371608377E-1;-1.300287485E0
3.059412276E1;-3.430148959E-1;1.669134974E0;6.664555669E-1
3.061078875E1;-1.173521042E0;1.223455310E0;2.425605297E0
3.062745474E1;-5.089297295E-1;1.900164008E0;3.488738537E0
3.064412073E1;-1.006674170E-1;7.898929715E-1;3.368097305E0
3.066078672E1;-5.222455263E-1;-4.154528081E-1;2.862496614E0
3.067745271E1;-9.147951752E-2;1.946769357E-1;2.349305868E0
3.069411870E1;2.195641518E0;9.980188608E-1;1.310274243E0
3.071078469E1;3.942806959E0;1.601224422E0;-7.419561148E-1
3.072745068E1;-1.055143595E0;-6.593981981E-1;-1.480583310E0
3.074411667E1;-2.814559698E0;-2.037316747E-2;-1.572329164E0
3.076078266E1;-1.836780787E0;-7.536740601E-2;-2.448641539E0
3.077744865E1;-1.366200596E-1;1.197090000E-1;-3.777824402E0
3.079411464E1;1.458079576E0;-4.030691385E-1;-4.497676373E0
3.081078063E1;1.621730685E0;-3.093924999E0;-4.319510937E0
3.082744661E1;-1.270326823E-1;-3.423890591E0;-3.374488831E0
3.084411260E1;-2.669417620E0;-9.029440880E-1;-2.765823841E0
3.086077859E1;-3.819769144E0;2.737195015E0;-3.472493172E0
3.087744458E1;-2.491784811E0;5.854555607E0;-4.256260872E0
3.089411057E1;-1.051947847E-2;3.896468163E0;-3.737344265E0
3.091077656E1;1.567002773E0;-4.964128435E-1;-2.553969622E0
3.092744255E1;1.795368671E0;-3.098319292E0;-1.403218508E0
3.094410854E1;1.070589900E0;-3.169425726E0;-1.817606091E-1
3.096077453E1;1.521995366E-1;-1.580584884E0;7.988145947E-1
3.097744052E1;1.185105816E-1;-8.006787896E-1;1.292963743E0
3.099410651E1;4.715123177E-1;-5.547360182E-1;1.698829174E0
3.101077250E1;8.680567145E-1;-4.154528081E-1;2.171806335E0
3.102743849E1;1.196690559E0;-4.455465078E-1;2.582731724E0
3.104410448E1;1.290034294E0;-3.671164811E-1;3.090462923E0
3.106077047E1;8.938893676E-1;5.526055023E-2;3.904457569E0
3.107743646E1;8.890956640E-1;-6.977476925E-2;4.640554905E0
3.109410245E1;1.428252220E0;6.478134394E-1;5.323388577E0
3.111076844E1;3.070089817E0;3.764508486E0;4.957870007E0
3.112743443E1;7.731150985E-1;5.715938568E0;3.595797539E0
3.114410042E1;-3.195791006E0;2.555833817E0;2.627605915E0
3.116076641E1;-4.132690430E0;8.088014126E-1;1.760348201E0
3.117743240E1;-1.938247204E0;1.169126868E0;1.693636060E0
3.119409838E1;-4.127896391E-3;-4.326302111E-1;1.403218508E0
3.121076438E1;5.313002318E-2;-1.573261261E0;7.099981904E-1
3.122743036E1;-5.050681233E-1;-2.300037384E0;2.039979845E-1
3.124409635E1;-7.165229321E-1;-2.531199455E0;-3.274354041E-1
3.126076234E1;-4.427502155E-1;-2.483262777E0;-8.040077090E-1
3.127742833E1;-5.672528967E-2;-2.051831007E0;-1.282577395E0
3.129409432E1;2.121206224E-1;-1.261005878E0;-1.791107655E0
3.131076031E1;3.480748832E-1;-3.716438413E-1;-2.402169466E0
3.132742630E1;5.174518228E-1;1.027979404E-1;-3.002578735E0
3.134409229E1;6.571345329E-1;-2.496711612E-1;-3.379948378E0
3.136075828E1;7.705850601E-1;-1.178314686E0;-3.321891546E0
3.137742427E1;1.154479504E0;-6.069339514E-1;-2.799113274E0
3.139409026E1;1.392432690E0;2.118010521E0;-1.595099092E0
3.141075625E1;6.791055948E-2;3.734814405E0;3.865575492E-1
3.142742224E1;-1.495230675E0;2.587791681E0;2.155560970E0
3.144408823E1;-2.189649343E0;8.587356806E-1;3.074084520E0
3.146075422E1;-2.066744566E0;-1.132375240E0;3.144924641E0
3.147742021E1;-1.477387547E0;-2.377668381E0;3.364635229E0
3.149408620E1;7.945535183E-1;-1.586044431E0;3.169292450E0
3.151075219E1;4.486357689E0;1.743437052E0;1.158074737E0
3.152741818E1;1.846501350E0;3.993273973E0;-7.173219323E-1
3.154408417E1;-1.360741138E0;2.822682381E0;-1.735980272E0
3.156075016E1;-4.854938984E-1;8.219840527E-1;-3.203247786E0
3.157741615E1;8.419577479E-1;-6.832334399E-1;-4.014446259E0
3.159408214E1;1.719868183E0;-2.405764818E0;-4.528568745E0
3.161074812E1;9.587372541E-1;-2.553570032E0;-4.486357689E0
3.162741411E1;-8.258456588E-1;-2.848248720E0;-3.664640188E0
3.164408010E1;-2.282194138E0;-2.576073885E0;-2.823081732E0
3.166074609E1;-2.834133863E0;-9.447556734E-1;-2.553703308E0
3.167741208E1;-2.125999928E0;5.116061687E0;-2.842656136E0
3.169407807E1;-1.002679393E-1;5.657881737E0;-2.233591557E0
3.171074406E1;1.179912686E0;1.108806252E0;-9.994835854E-1
3.172741005E1;1.510277510E0;-2.323073626E0;-3.123885691E-1
3.174407604E1;1.249687433E0;-3.139864683E0;-2.155827284E-1
3.176074203E1;4.294344187E-1;-1.924798250E0;-2.632532716E-1
3.177740802E1;-1.091895252E-1;-1.447693229E0;-1.611211337E-2
3.179407401E1;-2.551306486E-1;-1.717205048E0;4.504733682E-1
3.181074000E1;-1.514005959E-1;-1.800561905E0;9.519461989E-1
3.182740599E1;1.541969180E-1;-1.250619531E0;1.537175417E0
3.184407198E1;7.246456146E-1;-8.527435660E-1;2.132258415E0
3.186073797E1;1.309208989E0;-7.982819676E-1;2.519481659E0
3.187740396E1;1.545830727E0;-2.129195631E-1;2.812562227E0
3.189406995E1;1.291099548E0;9.145288467E-1;3.412705183E0
3.191073594E1;1.229181051E0;1.671798110E0;4.148269653E0
3.192740193E1;1.761679769E0;3.669833183E0;4.665987968E0
3.194406792E1;2.029327154E0;4.927909374E0;4.451470375E0
3.196073391E1;-2.922950268E0;4.138282776E0;3.320693016E0
3.197739990E1;-6.179993629E0;2.365684271E0;2.015611887E0
3.199406588E1;-4.353732586E0;2.358094215E0;1.549026489E0
3.201073188E1;-5.186502337E-1;-9.290430546E-1;1.022786260E0
3.202739786E1;5.543365479E-1;-2.834400177E0;1.073253155E-1
3.204406385E1;6.878939867E-1;-3.510576248E0;-9.813741595E-2
3.206072984E1;4.881570637E-1;-3.105243444E0;-2.993390858E-1
3.207739583E1;2.102564126E-1;-2.167012453E0;-4.438154697E-1
3.209406182E1;8.482161909E-2;-1.379915833E0;-6.990792751E-1
3.211072781E1;7.536740601E-2;-8.612656593E-1;-1.096688867E0
3.212739380E1;2.290316820E-1;-6.041376591E-1;-1.678189754E0
3.214405979E1;5.713807940E-1;-3.530017436E-1;-2.348906279E0
3.216072578E1;9.004141092E-1;-1.597895473E-1;-2.885932446E0
3.217739177E1;9.661940932E-1;-7.185203433E-1;-3.065296173E0
3.219405776E1;9.627320170E-1;-1.511209607E0;-2.938529730E0
3.221072375E1;1.016794205E0;-7.677887678E-1;-2.450772047E0
3.222738974E1;7.869635224E-1;2.136918783E0;-1.182442665E0
3.224405573E1;-4.736428559E-1;3.330546856E0;6.870950460E-1
3.226072172E1;-1.822000265E0;1.620399117E0;2.369146347E0
3.227738771E1;-2.039846659E0;-6.070671082E-1;3.078212500E0
3.229405370E1;-1.482980132E0;-1.572196007E0;2.983537197E0
3.231071969E1;-8.958867192E-1;-1.988980412E0;2.429067373E0
3.232738568E1;1.053812027E0;-7.383608818E-1;1.530783892E0
3.234405167E1;3.227216244E0;2.845851898E0;2.712427676E-1
3.236071766E1;2.073269337E-1;4.947883129E0;7.403582335E-2
3.237738365E1;-7.346324325E-1;1.338104248E0;-1.480450153E0
3.239404964E1;2.061285079E-1;-1.067527294E0;-3.030675173E0
3.241071562E1;1.383777499E0;-1.964479327E0;-3.955057621E0
3.242738161E1;2.043575048E0;-1.602822304E0;-4.428966522E0
3.244404760E1;1.263269544E0;-6.087981462E-1;-4.342813492E0
3.246071359E1;-9.831051826E-1;-7.772429585E-1;-3.633880615E0
3.247737958E1;-2.308293104E0;-2.265416384E0;-3.192595243E0
3.249404557E1;-3.131342411E0;-1.945703983E0;-3.259840012E0
3.251071156E1;-3.148786068E0;3.880489111E0;-3.095922470E0
3.252737755E1;-6.621944904E-1;4.937763214E0;-2.487257481E0
3.254404354E1;1.200685263E0;1.163667321E0;-1.767272353E0
3.256070953E1;1.831853986E0;-2.105893135E0;-1.122255206E0
3.257737552E1;1.381780148E0;-2.296175718E0;-7.313035131E-1
3.259404151E1;3.017359376E-1;-7.846998572E-1;-3.769701719E-1
3.261070750E1;-4.077296555E-1;-4.340949357E-1;1.150484756E-1
3.262737349E1;-5.191828609E-1;-1.549159646E0;8.611325026E-1
3.264403948E1;-3.315632939E-1;-2.382462025E0;1.610412359E0
3.266070547E1;8.402267098E-2;-1.933187246E0;2.206826687E0
3.267737146E1;8.105324507E-1;-5.663207769E-1;2.511358976E0
3.269403745E1;1.327185392E0;3.522028029E-1;2.773680210E0
3.271070344E1;1.352884769E0;9.966872931E-1;3.123619318E0
3.272736943E1;8.725841045E-1;1.791507125E0;3.638674259E0
3.274403542E1;6.820350289E-1;1.487773776E0;4.305263042E0
3.276070141E1;1.304947972E0;1.972335577E0;5.042026043E0
3.277736740E1;2.587525368E0;4.134421349E0;4.511924267E0
3.279403338E1;-2.736662388E0;4.712460041E0;3.420295238E0
3.281069938E1;-5.861879349E0;2.383660555E0;2.504967451E0
3.282736536E1;-3.347590923E0;1.843305588E0;2.265949011E0
3.284403135E1;-2.099900991E-1;-1.009869933E0;1.687244415E0
3.286069734E1;4.358259737E-1;-2.337987423E0;4.691154659E-1
3.287736333E1;2.149169445E-1;-2.802042961E0;-2.024000883E-2
3.289402932E1;1.074584723E-1;-2.602039576E0;-2.312953621E-1
3.291069531E1;2.406164259E-1;-2.234523535E0;-3.490070105E-1
3.292736130E1;5.118591785E-1;-1.660346508E0;-5.906887054E-1
3.294402729E1;6.716487408E-1;-7.113298178E-1;-9.138630629E-1
3.296069328E1;7.387603521E-1;2.914827764E-1;-1.380714893E0
3.297735927E1;8.852340579E-1;9.162598848E-1;-2.031990290E0
3.299402526E1;1.027446747E0;7.246456146E-1;-2.703639030E0
3.301069125E1;1.021055222E0;-3.713775277E-1;-3.084737301E0
3.302735724E1;8.562056422E-1;-1.031841040E0;-2.970620871E0
3.304402323E1;8.619314432E-1;3.862912357E-1;-2.074334621E0
3.306068922E1;1.676458716E-1;2.219343662E0;-4.551338851E-1
3.307735521E1;-1.083506227E0;1.520663857E0;1.196956873E0
3.309402120E1;-1.738510251E0;1.536642760E-1;2.445978403E0
3.311068719E1;-1.366466880E0;-2.344911546E-1;3.106974602E0
3.312735318E1;-1.311738968E0;-1.632250190E0;3.012166023E0
3.314401917E1;-4.291680753E-1;-1.730920315E0;2.881937504E0
3.316068516E1;2.239450455E0;3.195791040E-3;2.131858826E0
3.317735115E1;4.715522766E0;3.150650263E0;-1.544632297E-2
3.319401714E1;-1.523326933E-1;3.291398287E0;-9.263799191E-1
3.321068312E1;-8.789756894E-1;1.427586436E0;-1.868072987E0
3.322734911E1;1.324921697E-1;-1.936116666E-1;-2.986067057E0
3.324401510E1;1.090696812E0;-1.440103292E0;-4.064646721E0
3.326068109E1;1.298822641E0;-2.196174145E0;-4.839892387E0
3.327734708E1;3.283675313E-1;-3.158639908E0;-4.543349266E0
3.329401307E1;-1.327185392E0;-2.854240656E0;-3.723495960E0
3.331067906E1;-2.728140116E0;-1.232376933E0;-2.975148201E0
3.332734505E1;-3.502853155E0;2.242379904E0;-3.102180958E0
3.334401104E1;-2.139715195E0;5.092626095E0;-3.156642437E0
3.336067703E1;1.126516312E-1;2.943057060E0;-2.610428572E0
3.337734302E1;1.510277510E0;-1.031308413E0;-1.841707706E0
3.339400901E1;1.702823877E0;-2.719351768E0;-1.260073781E0
3.341067500E1;1.018258929E0;-1.995771408E0;-7.219824195E-1
3.342734099E1;2.649843395E-1;-1.002413034E0;-1.257011145E-1
3.344400698E1;1.159805804E-1;-1.217862606E0;5.948165655E-1
3.346067297E1;2.974748611E-1;-1.530251265E0;1.421061754E0
3.347733896E1;6.564686894E-1;-1.325454235E0;2.249171019E0
3.349400495E1;1.162202597E0;-5.864276290E-1;2.553037405E0
3.351067094E1;1.603621244E0;1.022653133E-1;2.602705479E0
3.352733693E1;1.674194932E0;6.053360701E-1;2.700176954E0
3.354400292E1;1.124785304E0;1.064464688E0;3.060369253E0
3.356066891E1;7.969503403E-1;1.170058966E0;3.491801023E0
3.357733490E1;7.091992497E-1;1.567801714E0;4.020171642E0
3.359400088E1;1.228115797E0;1.584712863E0;4.335356712E0
3.361066688E1;-6.657897830E-1;1.502554417E0;3.856786966E0
3.362733286E1;-4.405131340E0;2.331595898E0;2.767954350E0
3.364399885E1;-3.902460098E0;2.923882484E0;2.260489464E0
3.366066484E1;-1.099085808E0;-1.741705984E-1;1.675659657E0
3.367733083E1;2.685796022E-1;-2.380198479E0;6.275734305E-1
3.369399682E1;2.806969583E-1;-2.632665873E0;1.659148186E-1
3.371066281E1;-1.089232042E-1;-2.494048595E0;-9.587372839E-2
3.372732880E1;-2.973417044E-1;-2.223870993E0;-1.712411344E-1
3.374399479E1;-1.422126889E-1;-1.795501828E0;-3.487406969E-1
3.376066078E1;7.243792713E-2;-1.042094111E0;-6.755102873E-1
3.377732677E1;1.680453420E-1;3.968106955E-2;-1.113067389E0
3.379399276E1;1.043958366E-1;9.032104015E-1;-1.701891780E0
3.381065875E1;1.780321896E-1;1.123320460E0;-2.343713284E0
3.382732474E1;5.113265514E-1;2.660495937E-1;-2.721482277E0
3.384399073E1;9.701888561E-1;-7.876293063E-1;-2.608431101E0
3.386065672E1;1.473525882E0;-5.040028691E-1;-2.068342447E0
3.387732271E1;1.337971091E0;1.369929075E0;-9.643298984E-1
3.389398870E1;-2.193111479E-1;2.558496952E0;7.434208393E-1
3.391065469E1;-1.851694465E0;1.561809659E0;2.227732658E0
3.392732068E1;-2.395378351E0;3.249054030E-2;2.755570650E0
3.394398667E1;-1.872999787E0;-1.332911104E-1;2.295110464E0
3.396065266E1;-8.135951161E-1;-4.094607234E-1;1.587775469E0
3.397731865E1;1.602955461E0;1.959951997E0;1.018258929E0
