"Time (s)";"Linear Acceleration x (m/s^2)";"Linear Acceleration y (m/s^2)";"Linear Acceleration z (m/s^2)"
9.536252200E-2;-7.015299797E-2;2.012617588E-1;-2.152776718E-1
1.120285110E-1;-1.159906387E-3;5.649566650E-3;-6.934404373E-2
1.286945010E-1;-1.478502750E-1;-1.687901020E-1;5.390071869E-2
1.453604900E-1;-1.993336678E-1;-6.834650040E-2;2.962141037E-1
1.620264800E-1;3.954517841E-1;3.641128540E-3;7.296390533E-1
1.786924700E-1;6.953078508E-1;1.293671131E-1;1.173623085E0
1.953584590E-1;3.087735176E-1;3.608202934E-1;1.141918659E0
2.120244490E-1;-1.956243515E-1;5.920438766E-1;8.955039978E-1
2.286904380E-1;-3.811364174E-1;4.123766422E-1;6.456375122E-3
2.453564280E-1;1.719205379E-1;-8.004641533E-2;-1.893072128E-1
2.620224170E-1;5.758349895E-1;-9.839677811E-2;-3.685302734E-1
2.786884070E-1;6.073235273E-1;-1.060454845E-1;2.971792221E-2
2.953543970E-1;7.319967747E-1;-1.896202564E-1;4.348506927E-1
3.120203860E-1;1.156366467E0;8.921122551E-2;5.002479553E-1
3.286863760E-1;9.221944809E-1;4.941272736E-2;6.310739517E-1
3.453523650E-1;2.731912136E-1;-2.886235714E-1;1.388431549E0
3.620183550E-1;4.762430191E-1;-4.207148552E-1;2.331364632E0
3.786843450E-1;8.845187426E-1;-6.781227589E-1;4.378777027E0
3.953503340E-1;-3.594408035E-1;-1.928722858E-1;1.226749802E1
4.120163240E-1;-8.580696583E-1;-1.639284134E0;5.927420616E0
4.286823130E-1;2.326905251E0;-2.905127287E0;3.905058861E0
4.453483030E-1;2.493134975E0;-3.730727196E0;1.520871162E0
4.620142920E-1;7.927877903E-1;-4.009952545E0;1.372208595E-1
4.786802820E-1;-4.362263680E-1;-4.506597519E0;2.013638973E0
4.953462720E-1;-5.558967590E-3;-5.070589066E0;3.673149586E0
5.120122610E-1;2.132347822E0;-4.747239113E0;3.353805542E-1
5.286782510E-1;3.354491711E0;-5.472513676E0;-3.557346106E0
5.453442400E-1;5.931051254E0;-7.843383789E0;-3.419838428E0
5.620102300E-1;7.929760933E0;-8.323752403E0;-3.698991776E0
5.786762200E-1;6.525763035E0;-8.120976448E0;-4.596476078E0
5.953422090E-1;2.847197533E0;-8.812585831E0;-5.421844959E0
6.120081990E-1;-5.188293457E-1;-8.033890724E0;-5.107517242E0
6.286741880E-1;-2.825668812E0;-5.176817894E0;-4.152462959E0
6.453401780E-1;-6.543174744E0;-2.918867588E0;-3.929924011E0
6.620061670E-1;-7.558030605E0;-3.161540508E0;-3.277730942E0
6.786721570E-1;-7.858986855E0;-3.743120909E0;-3.027413607E0
6.953381470E-1;-8.679885864E0;-1.779748201E0;-3.432950974E0
7.120041360E-1;-9.997327805E0;1.907166004E0;-4.392878056E0
7.286701260E-1;-9.932918549E0;3.322856188E0;-4.005378723E0
7.453361150E-1;-7.540845871E0;2.392887592E0;-2.452274084E0
7.620021050E-1;-4.262147427E0;3.162314892E-1;-4.605360508E0
7.786680950E-1;-6.062359333E0;2.349663973E0;-4.739020348E0
7.953340840E-1;-8.126191139E0;3.580753803E0;-3.717895269E0
8.119993750E-1;-8.545038223E0;4.540478230E0;-1.522215962E0
8.286653640E-1;-1.140164471E1;5.918539047E0;-1.894822359E0
8.453313540E-1;-1.109664059E1;4.106924534E0;-2.126887798E0
8.619973430E-1;-6.776630878E0;2.783922672E0;-1.001508474E0
8.786633330E-1;-3.412295341E0;3.699986935E0;1.030990362E0
8.953293230E-1;-2.781774521E0;3.335242271E0;1.750180721E0
9.119953120E-1;-5.102684021E0;2.836200714E0;2.547874928E0
9.286613020E-1;-7.317027092E0;2.229929209E0;1.819894075E0
9.453272910E-1;-1.043186092E1;1.776253223E0;6.606874615E-2
9.619932810E-1;-1.239041328E1;4.310402870E-1;-1.173849344E0
9.786592710E-1;-1.048661423E1;-9.250125885E-1;2.973964930E0
9.953252600E-1;-2.545285225E0;1.362326145E-1;1.542197323E1
1.011991250E0;3.974421501E0;1.940729380E0;8.901028633E0
1.028657239E0;-4.012918472E-1;2.290371895E0;1.421284676E0
1.045323229E0;-2.043302536E0;-8.794467449E-1;4.169383943E-1
1.061989218E0;-2.429810524E0;-3.328318596E-1;-1.727926493E0
1.078655208E0;-1.948211670E0;-3.952658176E-1;-3.737404823E0
1.095321198E0;-6.409249306E0;2.561524868E0;-2.996726513E0
1.111987187E0;-2.301578522E-1;1.750543594E0;-8.303354263E0
1.128653177E0;7.936497211E0;-1.733550906E0;-6.049357057E-1
1.145319166E0;7.834687233E0;2.077112794E-1;-1.943414807E-1
1.161985156E0;6.215613365E0;6.400002241E-1;-1.323012471E0
1.178651146E0;3.358486176E0;-3.265647650E0;7.854187489E-2
1.195317135E0;3.391162395E0;-3.677417040E0;-5.764427185E0
1.211983125E0;7.814827919E0;-6.066531658E0;-6.890763283E0
1.228649114E0;8.823979378E0;-7.105604649E0;1.871423125E-1
1.245315104E0;7.983474255E0;-4.795122623E0;-1.213849068E0
1.261981093E0;6.084897995E0;-3.802221298E0;-2.086342812E0
1.278647083E0;3.557054520E0;1.536669731E-1;5.724515319E-1
1.295313073E0;4.943693161E0;-3.141551018E-1;2.994431734E0
1.311979062E0;4.867472649E0;-5.931681633E0;1.738047600E0
1.328645052E0;1.470239639E0;-5.554030418E0;-4.182832539E-1
1.345311041E0;-2.021319389E0;-4.546228409E0;-2.484503686E-1
1.361977031E0;-1.109039021E1;-2.461957455E0;-1.050664306E0
1.378643021E0;-1.854171944E1;-1.161985397E0;1.207530975E0
1.395309010E0;-1.407899666E1;2.601736069E0;2.985808134E0
1.411975000E0;-1.254197598E0;2.717412949E0;1.820991635E0
1.428640989E0;-4.236378670E-1;1.588838577E0;2.931047201E0
1.445306979E0;-1.362057686E0;2.342921257E0;1.010332346E0
1.461972968E0;-5.395793915E-2;2.771297455E0;-1.157840848E0
1.478638958E0;2.379512787E-2;2.359978676E0;1.331328273E0
1.495304948E0;7.677483559E-1;5.528702736E-1;1.628228307E0
1.511970937E0;8.751077652E-1;9.969696999E-1;-2.635140121E-1
1.528636927E0;1.308392048E0;2.865107298E0;8.133637905E-1
1.545302916E0;2.519801617E0;3.928365231E0;1.238060355E0
1.561968906E0;6.175870895E-1;1.598331451E0;9.488226175E-1
1.578634896E0;-7.130241394E-2;-2.712742805E0;-1.618936956E-1
1.595300885E0;-9.124441147E0;-6.212989330E0;2.313398123E-1
1.611966875E0;-1.031717396E1;-5.615049362E0;9.395873547E-1
1.628632864E0;3.093408585E0;-3.553213120E0;-5.171273708E0
1.645298854E0;3.411190987E0;-2.823503494E0;-7.530586123E-1
1.661964843E0;-2.828520298E0;-4.989634514E0;2.791395426E0
1.678630833E0;-3.985953331E0;-7.797425747E0;1.036014318E0
1.695296823E0;-4.434737206E0;-6.445422649E0;1.344232559E-1
1.711962812E0;-8.080444336E-1;-4.456187725E0;5.035777092E-1
1.728628802E0;-1.212596893E-3;-4.155632973E0;1.089150667E0
1.745294791E0;1.260075569E-1;-4.062839031E0;-5.876054764E-1
1.761960781E0;-2.272712231E0;-4.281826019E0;-2.071101665E-1
1.778626771E0;-9.407944679E-1;-2.022022247E0;-1.046745062E0
1.795292760E0;3.396391869E-1;-1.952171326E-1;5.973637104E-2
1.811958750E0;6.109066963E0;1.216573715E0;-1.244564295E0
1.828624739E0;7.801603317E0;7.285184860E-1;-6.181579232E-1
1.845290729E0;8.206377983E0;1.823410511E0;-7.427384257E-1
1.861956718E0;5.677722931E0;4.412094116E0;-1.391090155E-1
1.878622708E0;4.155383110E0;5.731042862E0;6.859127283E-1
1.895288698E0;2.421802759E0;6.438283920E0;3.258547783E-1
1.911954687E0;2.252227068E0;6.877697468E0;-6.773023605E-1
1.928620677E0;2.480113268E0;6.979024410E0;3.366327286E-2
1.945286666E0;2.457004547E0;4.835353851E0;1.345523596E0
1.961952656E0;1.936296701E0;2.491675377E0;1.854291677E0
1.978618646E0;2.523813248E-1;3.746926308E0;-2.549355030E-1
1.995284635E0;-8.890147209E-1;3.944838524E0;-8.033430576E-1
2.011950625E0;2.021724224E0;-1.852946758E0;-3.850095272E-1
2.028616614E0;6.855020523E-1;-1.817826271E0;-4.297208786E-1
2.045282604E0;-3.194505692E0;5.895876884E-1;-1.755239725E0
2.061948593E0;-4.766383648E0;1.213223934E0;-1.389847755E0
2.078614583E0;-4.739665031E0;-2.670030594E-1;-1.831868887E0
2.095280573E0;-1.745685577E0;-9.570589066E-1;-1.104147434E0
2.111946562E0;7.103943825E-2;-1.553454399E0;1.165168285E-1
2.128612552E0;-1.514144182E0;-5.681732178E0;1.713000059E0
2.145278541E0;1.325756550E0;-1.045154572E1;-2.250932217E0
2.161944531E0;3.820489168E0;-9.927314758E0;-3.440005064E0
2.178610521E0;3.434049368E0;-4.358351707E0;-2.210509777E0
2.195276510E0;7.245052338E0;3.777547359E0;-2.165465355E0
2.211942500E0;1.437035680E0;1.490100861E0;-9.169514656E0
2.228608489E0;5.562720299E-1;-1.124529839E0;-2.913710356E0
2.245274479E0;-3.498713970E0;-2.530158997E0;-2.118131876E0
2.261940468E0;-5.890239239E0;-3.026784897E0;-4.254532754E-1
2.278606458E0;-3.977921724E0;-9.899168015E-1;3.174256325E0
2.295272448E0;1.347882867E0;1.187904358E0;8.518270254E-1
2.311938437E0;2.382460117E0;1.423021317E0;1.313206553E-1
2.328604427E0;1.731992364E0;1.470086098E0;3.727586865E-1
2.345270416E0;1.382011294E0;3.518896103E-1;-6.013019085E-1
2.361936406E0;2.085947990E-1;-1.473018646E0;-1.259803057E0
2.378602396E0;-2.146791458E0;-8.820142746E-1;2.345113993E0
2.395268385E0;-9.383406639E-1;3.838272095E-1;1.042573214E0
2.411934375E0;6.609610915E-1;-9.974956512E-2;-2.490664482E0
2.428600364E0;1.926790476E0;4.788627625E-1;-1.604730606E0
2.445266354E0;2.061463356E0;1.608800411E0;3.993803859E-1
2.461932343E0;8.533611298E-1;2.123257160E0;1.622708559E0
2.478598333E0;-1.603806496E0;1.197944641E0;1.267184854E0
2.495264323E0;-3.482748508E0;-1.233663559E-1;-3.636227846E-1
2.511930312E0;-3.911259174E0;-7.438611984E-1;-4.433610439E-1
2.528596302E0;-3.619457483E0;-7.009410858E-2;1.124228477E0
2.545262291E0;-3.676430702E0;1.298624992E0;2.425867081E0
2.561928281E0;-4.439180374E0;2.311725140E0;2.821341753E0
2.578594271E0;-5.516819954E0;2.705027580E0;2.466248989E0
2.595260260E0;-6.049957275E0;3.084057808E0;2.182064533E0
2.611926250E0;-5.491174698E0;3.569597244E0;2.890816212E0
2.628592239E0;-4.761231899E0;3.514043808E0;2.855876446E0
2.645258229E0;-3.892630100E0;2.728413105E0;1.986129761E0
2.661924218E0;-2.869311094E0;1.620305538E0;1.649675250E0
2.678590208E0;-3.705075264E0;3.106508255E-1;2.490431786E0
2.695256198E0;-4.994082928E0;-2.158151627E0;2.244167566E0
2.711922187E0;-3.242665291E0;-5.688350677E0;-4.226680398E-1
2.728588177E0;1.293758869E0;-1.055197525E1;-4.757235527E0
2.745254166E0;6.563079834E0;-1.586741734E1;-7.006346703E0
2.761920156E0;9.479726791E0;-1.803011131E1;-6.254359722E0
2.778586146E0;5.440656662E0;-9.759771347E0;-3.399643183E0
2.795252135E0;-4.245676994E-1;-1.700657845E0;-1.713693142E0
2.811918125E0;-7.647330761E0;2.134994030E0;1.990138292E0
2.828584114E0;-9.241802216E0;2.744116306E0;2.827565670E0
2.845250104E0;-1.146267414E0;9.511771202E-1;1.801197529E0
2.861916093E0;3.073591232E0;5.307302475E-1;2.338381290E0
2.878582083E0;4.935280323E0;2.644023895E-1;1.734167457E0
2.895248073E0;6.033849239E0;5.885848999E-1;-6.706702113E-1
2.911914062E0;6.100565910E0;1.575135231E0;-2.314093113E0
2.928580052E0;5.888906002E0;2.010243893E0;-2.652125835E0
2.945246041E0;5.680355072E0;1.750992298E0;-3.186604977E0
2.961912031E0;5.735948563E0;1.370336056E0;-3.392034769E0
2.978578021E0;6.194862843E0;1.046563148E0;-2.604018927E0
2.995244010E0;6.168146133E0;6.859245300E-1;-1.857187748E0
3.011910000E0;5.749365330E0;1.726722717E-1;-1.056798339E0
3.028575989E0;3.744043350E0;-4.094114304E-1;1.057189107E-1
3.045241979E0;5.115227699E-1;-1.136012554E0;1.215799809E0
3.061907968E0;-2.011692047E0;-1.775355339E0;1.572426081E0
3.078573958E0;-3.701691151E0;-1.475444317E0;8.420724273E-1
3.095239948E0;-3.899253368E0;2.684354782E-2;3.726950288E-1
3.111905937E0;-2.924282074E0;1.089969635E0;8.209975362E-1
3.128571927E0;-2.170978546E0;1.206339836E0;1.166890621E0
3.145237916E0;-1.354273319E0;9.942560196E-1;8.545195460E-1
3.161903906E0;-8.835854530E-1;8.897776604E-1;2.141899168E-1
3.178569896E0;-1.173420906E0;1.247265339E0;-1.274196506E-1
3.195235885E0;-1.397520065E0;2.008361816E0;2.290289402E-1
3.211901875E0;-1.255902290E0;2.508315086E0;8.165434003E-1
3.228567864E0;-5.296711922E-1;2.131013393E0;1.379745722E0
3.245233854E0;-7.281007767E-1;1.967120171E-1;1.930613875E0
3.261899843E0;-1.646786213E0;-2.599121571E0;5.450733900E-1
3.278565833E0;-2.018250942E0;-4.742955208E0;-1.998251915E0
3.295231823E0;-2.051250458E0;-5.133840561E0;-3.599381685E0
3.311897812E0;-6.884021759E-1;-2.393033504E0;-2.582789898E0
3.328563802E0;1.737804413E-1;-5.039348602E-1;1.315554857E0
3.345229791E0;-4.686641693E-1;-2.927541733E-1;5.012821674E0
3.361895781E0;1.233679771E0;-9.666585922E-1;4.399388790E0
3.378561771E0;3.679612637E0;-5.409240723E-1;1.216692328E0
3.395227760E0;4.564902782E0;1.511425972E-1;-1.364116907E0
3.411893750E0;4.611148834E0;-3.894891739E-1;-3.237895250E0
3.428559739E0;3.755722046E0;-9.441175461E-1;-4.544461727E0
3.445225729E0;3.064212799E0;-8.699150085E-1;-4.947075844E0
3.461891718E0;2.263734341E0;-9.389553070E-1;-4.495904922E0
3.478557708E0;2.053301096E0;-1.100436211E0;-3.251457453E0
3.495223698E0;1.307925701E0;-1.160284996E0;-1.776138663E0
3.511889687E0;-3.883333206E-1;-1.128299713E0;-1.812681556E-1
3.528555677E0;-1.057901859E0;-8.864383698E-1;9.023700953E-1
3.545221666E0;-3.513045311E-1;-1.965761185E-1;1.817068696E0
3.561887656E0;1.420903206E-1;3.172359467E-1;2.034706116E0
3.578553646E0;1.271934509E-1;7.118034363E-1;4.692230225E-1
3.595219635E0;-6.330842972E-1;8.298077583E-1;-1.390598774E0
3.611885625E0;-1.424664497E0;8.800873756E-1;-2.602428436E0
3.628551614E0;-1.800264359E0;9.338846207E-1;-2.844690561E0
3.645217604E0;-2.298266411E0;1.234010220E0;-2.253185272E0
3.661883593E0;-2.576790333E0;1.533246994E0;-1.047655582E0
3.678549583E0;-1.940138817E0;1.418914318E0;2.048558593E-1
3.695215573E0;-8.653740883E-1;7.292232513E-1;7.078388929E-1
3.711881562E0;-2.488908768E-1;3.668594360E-2;9.394111633E-1
3.728547552E0;-1.190531254E-1;-3.283166885E-1;1.144681334E0
3.745213541E0;-2.153882980E-1;-1.662616730E-1;1.151150346E0
3.761879531E0;-9.653959274E-1;2.816295624E-1;1.158562183E0
3.778545521E0;-2.033038378E0;7.684707642E-1;1.052425146E0
3.795211510E0;-2.677410364E0;1.221938610E0;8.184561133E-1
3.811877500E0;-2.828175545E0;1.733419895E0;6.587719321E-1
3.828543489E0;-2.973861456E0;2.311643124E0;6.841688156E-1
3.845209479E0;-3.492511749E0;2.660751820E0;1.008924007E0
3.861875468E0;-3.561712265E0;2.699473381E0;1.505858660E0
3.878541458E0;-3.011928082E0;2.645341396E0;2.102675200E0
3.895207448E0;-2.354904175E0;2.834088326E0;2.954931736E0
3.911873437E0;-2.646220684E0;3.003546238E0;3.084376097E0
3.928539427E0;-4.340156555E0;1.958674431E0;2.678358316E0
3.945205416E0;-5.849395752E0;-1.163351059E0;1.916971684E0
3.961871406E0;-5.384825706E0;-4.853034973E0;1.510449290E0
3.978537396E0;-3.053636074E0;-7.085228920E0;8.242730498E-1
3.995203385E0;-2.408394814E-1;-7.140186310E0;6.567583084E-1
4.011869375E0;2.256321669E0;-6.134910583E0;2.844431639E0
4.028535364E0;5.521244049E0;-5.923203468E0;4.649358749E0
4.045201354E0;8.037872314E0;-5.380848885E0;6.697970033E-1
4.061867343E0;7.083967209E0;-3.089984894E0;-2.512683392E0
4.078533333E0;3.148980141E0;-6.302595139E-1;-3.257652521E0
4.095199323E0;-4.561115265E0;6.798515320E-1;-2.506290674E0
4.111865312E0;-1.141726685E1;1.831376076E0;-7.099583149E-1
4.128531302E0;-1.266795349E1;2.756954193E0;-1.080451012E-1
4.145197291E0;-2.938044071E0;6.332888603E-1;6.143239737E-1
4.161863281E0;1.913835526E0;-5.235877037E-1;8.192384243E-1
4.178529271E0;5.109770775E0;-1.245209694E0;6.424758434E-1
4.195195260E0;6.996284962E0;-1.271281242E0;-7.520554662E-1
4.211861250E0;7.270584583E0;-8.336782455E-2;-2.218306065E0
4.228527239E0;6.955868721E0;1.516229153E0;-2.542330503E0
4.245193229E0;6.818248272E0;2.887484074E0;-1.539038897E0
4.261859218E0;6.488470554E0;3.321524620E0;-3.316143751E-1
4.278525208E0;5.205495834E0;2.607698441E0;2.954636216E-1
4.295191198E0;4.404962540E0;1.602949142E0;1.122712851E0
4.311857187E0;3.989866972E0;1.412081718E0;2.650021553E0
4.328523177E0;3.168757915E0;1.971372604E0;4.409243107E0
4.345189166E0;7.260541916E-1;2.647321224E0;3.718081474E0
4.361855156E0;-4.102384090E0;3.606823444E0;-2.478822470E-1
4.378521146E0;-9.291248322E0;4.005040169E0;-2.182184696E0
4.395187135E0;-1.140940952E1;3.342003822E0;-1.164790154E0
4.411853125E0;-6.780148506E0;-3.631567955E-1;1.214478016E-1
4.428519114E0;-4.395943165E0;-8.304134369E0;3.752518654E0
4.445185104E0;-1.933321953E-1;-1.331564140E1;1.489451885E0
4.461851093E0;4.074900627E0;-1.060441399E1;1.858705878E-1
4.478517083E0;7.451441765E0;-6.167561054E0;-2.863991022E0
4.495183073E0;7.572043896E0;-2.421238422E0;-1.834227800E0
4.511849062E0;7.470188618E0;-1.952743530E-1;-1.277976274E0
4.528515052E0;6.375792503E0;5.392599106E-1;-1.861795187E0
4.545181041E0;4.709796429E0;3.603935242E-2;-2.549451828E0
4.561847031E0;2.621378899E0;-1.011392593E0;-2.271253586E0
4.578513021E0;8.939552307E-2;-2.467550278E0;-2.045207977E0
4.595179010E0;-3.294090748E0;-3.266788483E0;-2.569967508E0
4.611845000E0;-6.706816673E0;-1.072800636E0;-4.513442039E0
4.628510989E0;-7.789945602E0;2.694066048E0;-2.232336998E0
4.645176979E0;-4.915796280E0;4.157474041E0;6.611520052E-1
4.661842968E0;-2.135499477E0;4.057865620E0;2.609928846E0
4.678508958E0;-6.986060143E-1;3.859629631E0;2.758077860E0
4.695174948E0;-3.796720505E-2;3.382292747E0;1.487387419E0
4.711840937E0;2.080037594E-1;2.373759270E0;-9.863793850E-3
4.728506927E0;5.336809158E-1;1.315418720E0;-1.054585099E0
4.745172916E0;1.335810184E0;7.053575516E-1;-1.260782242E0
4.761838906E0;1.535476685E0;3.483533859E-1;-1.155387044E0
4.778504896E0;1.258952618E0;2.532958984E-3;-8.700132966E-1
4.795170885E0;6.388192177E-1;-7.913017273E-2;-2.586687803E-1
4.811836875E0;-1.765322685E-1;6.618976593E-2;9.516766071E-1
4.828502864E0;-1.208053827E0;1.143245697E-1;1.796100855E0
4.845168854E0;-2.484614372E0;2.661514282E-2;1.540553808E0
4.861834843E0;-3.501133442E0;3.313150406E-1;9.026286602E-1
4.878500833E0;-4.550749779E0;1.154890060E0;8.806137443E-1
4.895166823E0;-5.698666573E0;2.413832664E0;1.589316607E0
4.911832812E0;-6.378637314E0;3.528792381E0;2.209251404E0
4.928498802E0;-6.905527115E0;3.988578796E0;2.485467911E0
4.945164791E0;-7.042957306E0;3.378811359E0;2.054735661E0
4.961830781E0;-8.153461456E0;1.229516983E0;2.122959375E0
4.978496771E0;-7.641065598E0;-1.145051003E0;1.644239187E0
4.995162760E0;-5.441784859E0;-3.382373810E0;7.757028341E-1
5.011828750E0;-1.850778818E0;-5.775157928E0;1.645552635E0
5.028494739E0;2.084966183E0;-7.851508141E0;4.028681755E0
5.045160729E0;3.944955349E0;-8.787247658E0;3.026432276E0
5.061826718E0;6.450893402E0;-8.537746429E0;-1.244418144E0
5.078492708E0;8.782182693E0;-6.875260353E0;-4.345864773E0
5.095158698E0;7.662849903E0;-3.314915657E0;-4.911750317E0
5.111824687E0;4.976366043E0;-1.133104324E0;-5.319201946E0
5.128490677E0;-1.098320484E0;4.860858917E-1;-3.238544941E0
5.145156666E0;-1.048338699E1;2.338068008E0;1.983929634E0
5.161822656E0;-8.141090393E0;1.437660694E0;2.609265089E0
5.178488646E0;-6.569738388E-1;-7.989568710E-1;1.023735642E0
5.195154635E0;1.542836666E0;-6.673145294E-1;-1.925725341E-1
5.211820625E0;3.381610632E0;1.276903152E-1;-7.100582123E-1
5.228486614E0;4.826996803E0;9.065542221E-1;-1.957993746E0
5.245152604E0;5.368382454E0;1.989673615E0;-2.796341181E0
5.261818593E0;6.316622734E0;2.694460869E0;-2.781096935E0
5.278484583E0;7.403697968E0;3.059450626E0;-2.314552307E0
5.295150573E0;8.380998611E0;3.048808098E0;-1.846325397E0
5.311816562E0;8.761264801E0;3.003020763E0;-1.028110504E0
5.328482552E0;8.834230423E0;2.821437836E0;-1.415447593E-1
5.345148541E0;8.488395691E0;2.563485146E0;6.672267914E-1
5.361814531E0;6.499540329E0;2.134822369E0;3.571735382E0
5.378480521E0;1.205330372E0;7.924728394E-1;8.537920952E0
5.395146510E0;-9.919901848E0;-1.800204754E0;8.896728516E0
5.411812500E0;-2.061495781E1;-1.315080643E0;-3.504727364E0
5.428478489E0;-2.362333488E1;-3.508968353E-1;-6.198848724E0
5.445144479E0;-1.091777229E1;1.781577110E0;2.260331631E0
5.461810468E0;-2.227990150E0;2.426390648E0;1.943571687E0
5.478476458E0;1.654353619E0;-5.020955086E0;-6.465812325E-1
5.495142448E0;2.405089378E0;-1.442673683E1;-7.403028011E0
5.511808437E0;2.751363516E0;-1.495780945E1;-4.504078865E0
5.528474427E0;7.225548744E0;-7.443133831E0;4.272918224E0
5.545140416E0;1.073423576E1;-2.274783611E0;3.526832342E0
5.561806406E0;1.064917278E1;-2.566156387E-1;-1.646059155E-1
5.578472396E0;9.164072990E0;-2.737717628E-1;-2.410306215E0
5.595138385E0;6.462948322E0;-2.263348579E0;-3.713388681E0
5.611804375E0;4.685017586E0;-4.067344666E0;-2.408783197E0
5.628470364E0;3.261875629E0;-5.140377045E0;-1.280755043E0
5.645136354E0;2.407282352E0;-4.763921738E0;-9.575884938E-1
5.661802343E0;9.940752983E-1;-2.939888000E0;-1.034957647E0
5.678468333E0;-8.223500252E-1;-3.237886429E-1;-2.093369961E0
5.695134323E0;-2.887760162E0;2.415763378E0;-4.760373116E0
5.711800312E0;-4.790410519E0;5.019087791E0;-4.967568874E0
5.728466302E0;-5.227635384E0;6.199709892E0;-1.614454269E0
5.745132291E0;-4.125926971E0;6.890226364E0;1.535297394E0
5.761798281E0;-2.995336056E0;6.494917870E0;2.088867903E0
5.778464271E0;-2.779490471E0;5.348635674E0;6.736522913E-1
5.795130260E0;-2.617823839E0;3.169737339E0;-9.987246990E-2
5.811796250E0;-1.214048624E0;5.697317123E-1;4.638117552E-2
5.828462239E0;5.261721611E-1;-1.632005692E0;-6.013768911E-2
5.845128229E0;2.151615858E0;-2.789000511E0;2.299411893E-1
5.861794218E0;2.758327484E0;-2.955563545E0;1.216716528E0
5.878460208E0;9.642817974E-1;-2.228759766E0;2.229534388E0
5.895126198E0;-2.562154055E0;-8.071088791E-1;2.453210831E0
5.911792187E0;-5.561015129E0;5.794782639E-1;1.835412025E0
5.928458177E0;-7.436987877E0;2.394522667E0;9.184910655E-1
5.945124166E0;-8.515165329E0;4.314465523E0;5.158747435E-1
5.961790156E0;-8.952744484E0;5.720816612E0;7.455801964E-1
5.978456146E0;-8.402021408E0;5.552140713E0;2.127928734E0
5.995122135E0;-6.450036049E0;3.184523106E0;3.740879774E0
6.011788125E0;-4.858984470E0;-1.273860931E-1;3.563528538E0
6.028454114E0;-4.934519768E0;-2.809118271E0;2.410078049E0
6.045120104E0;-3.853283167E0;-3.698193550E0;1.430084944E0
6.061786093E0;-2.628082991E0;-3.590516090E0;1.866393089E0
6.078452083E0;-1.284453630E0;-5.277234077E0;1.801192284E0
6.095118073E0;1.635832787E0;-8.387337685E0;-6.779407859E-1
6.111784062E0;4.794929504E0;-1.016508770E1;-4.006783485E0
6.128450052E0;6.332686424E0;-9.443909645E0;-4.883890152E0
6.145116041E0;7.132111549E0;-7.862199783E0;-3.621604919E0
6.161782031E0;6.540506363E0;-5.652285576E0;-2.270903111E0
6.178448021E0;2.865674973E0;-2.370400429E0;-2.341736317E0
6.195114010E0;-2.390804768E0;7.586832047E-1;-1.045894146E0
6.211780000E0;-4.639662266E0;2.385603428E0;1.805784583E0
6.228445989E0;-2.171710491E0;2.257571220E0;1.850433588E0
6.245111979E0;3.404808044E-2;1.693095684E0;1.024913192E0
6.261777968E0;1.121753216E0;1.902345181E0;7.781434059E-1
6.278443958E0;3.048876762E0;1.757576466E0;-1.543581486E-2
6.295109948E0;4.547957897E0;1.777892590E0;-1.360316634E0
6.311775937E0;5.872863293E0;2.095978260E0;-2.437068939E0
6.328441927E0;7.144070148E0;2.528457165E0;-3.179621220E0
6.345107916E0;8.251533508E0;2.891962528E0;-3.628669500E0
6.361773906E0;9.519550323E0;2.794260025E0;-3.658432007E0
6.378439896E0;1.008678055E1;2.954305410E0;-2.859203577E0
6.395105885E0;9.817848206E0;3.271413088E0;-1.489298224E0
6.411771875E0;8.812641144E0;3.000657797E0;4.716601670E-1
6.428437864E0;5.261894226E0;2.325237751E0;4.571766853E0
6.445103854E0;-7.407083511E-1;-4.147639275E-1;1.033862877E1
6.461769843E0;-1.241655159E1;-4.882513046E0;6.230964661E0
6.478435833E0;-2.188007736E1;-4.416361332E0;-5.332723618E0
6.495101823E0;-2.495718193E1;-1.038507938E0;-4.389328361E-1
6.511767812E0;-1.068628883E1;2.792746544E0;6.624382973E0
6.528433802E0;-9.066786766E-1;3.879342318E0;4.090691090E0
6.545099791E0;5.157750607E0;1.390326500E0;-3.206407070E0
6.561765781E0;5.680267811E0;-8.094358444E0;-8.434134483E0
6.578431771E0;2.578222275E0;-1.496767616E1;-1.206935787E1
6.595097760E0;-1.188845158E0;-1.529046440E1;-3.078932762E0
6.611763750E0;2.382544518E0;-5.699021816E0;1.558345890E1
6.628429739E0;9.071503639E0;-3.005505562E0;2.633677959E0
6.645095729E0;1.133319378E1;-2.044585228E0;-1.912436247E0
6.661761718E0;8.226397514E0;-9.151949883E-1;-2.289003372E0
6.678427708E0;5.132985592E0;-9.939012527E-1;-3.065503120E0
6.695093698E0;3.528765678E0;-9.716978073E-1;-4.073474884E0
6.711759687E0;2.660710812E0;-1.245418549E0;-4.508666515E0
6.728425677E0;1.966507196E0;-1.097230911E0;-4.353678226E0
6.745091666E0;1.137375832E0;-2.984790802E-1;-3.162108183E0
6.761757656E0;-1.598410606E-1;5.158271790E-1;-2.478258610E0
6.778423646E0;-2.245010853E0;1.514185429E0;-4.373626709E0
6.795089635E0;-6.055358887E0;3.265417099E0;-6.631028175E0
6.811755625E0;-8.079225540E0;5.042380333E0;-1.087861061E-1
6.828421614E0;-7.013933659E0;6.273149490E0;3.807402134E0
6.845087604E0;-4.650091171E0;6.168354034E0;4.712870121E0
6.861753593E0;-2.381989956E0;4.862493515E0;1.990191102E0
6.878419583E0;-7.429926395E-1;2.248086929E0;-1.120388508E-1
6.895085573E0;1.147233009E0;-3.458576202E-1;-1.084661841E0
6.911751562E0;2.923135042E0;-2.417613029E0;-2.075414896E0
6.928417552E0;4.700663567E0;-3.520461082E0;-4.905709028E-1
6.945083541E0;5.454335213E0;-3.736652374E0;1.437437654E0
6.961749531E0;2.089721680E0;-2.898059845E0;4.288362503E0
6.978415521E0;-3.515397310E0;-1.068680763E0;5.521523476E0
6.995081510E0;-7.326164722E0;1.007141113E0;3.527344227E0
7.011747500E0;-9.753948212E0;3.487066746E0;1.040660381E0
7.028413489E0;-1.134322071E1;6.303649902E0;-1.170269251E-1
7.045079479E0;-1.233780575E1;7.878157616E0;9.625036716E-1
7.061745468E0;-1.114593124E1;6.149528503E0;3.352854967E0
7.078411458E0;-9.476743698E0;2.152828217E0;2.705430269E0
7.095077448E0;-8.910777092E0;-2.105705261E0;4.209501743E-1
7.111743437E0;-5.792293549E0;-5.051506042E0;-6.036525965E-1
7.128409427E0;-1.476122618E0;-7.514368057E0;7.879483700E-1
7.145075416E0;2.513901234E0;-9.810711861E0;3.702986240E0
7.161741406E0;4.570271492E0;-1.167436886E1;1.800685167E0
7.178407396E0;7.405575752E0;-1.230008698E1;-8.611279726E-1
7.195073385E0;8.241107941E0;-1.008202553E1;-1.703312397E0
7.211739375E0;7.083890915E0;-6.489742279E0;-2.224281549E0
7.228405364E0;4.312973976E0;-3.386360168E0;-5.037760258E0
7.245071354E0;-2.299265862E0;4.287433624E-2;-4.214190483E0
7.261737343E0;-7.881130219E0;1.689502716E0;4.305441380E0
7.278403333E0;-3.996658325E-2;-8.024415970E-1;3.237012148E0
7.295069323E0;2.848110914E0;-8.931565285E-1;5.995185375E-1
7.311735312E0;1.748544216E0;2.258786201E0;2.972985804E-1
7.328401302E0;2.528643131E0;4.113918304E0;-5.636982322E-1
7.345067291E0;3.216229439E0;5.111441612E0;-1.880246639E0
7.361733281E0;3.919902086E0;5.692760468E0;-3.067045689E0
7.378399271E0;5.143844128E0;6.002605915E0;-3.291516304E0
7.395065260E0;6.871665478E0;5.984867573E0;-2.751935005E0
7.411731250E0;9.114519119E0;5.525154114E0;-2.071081161E0
7.428397239E0;1.191057777E1;4.735432625E0;-2.045913935E0
7.445063229E0;1.379510689E1;3.876120567E0;-1.191578031E0
7.461729218E0;1.082451057E1;3.366073132E0;5.506506443E0
7.478395208E0;-4.758976460E0;1.557234764E0;1.512448120E1
7.495061198E0;-2.122500801E1;2.743673325E-2;-3.961583138E0
7.511727187E0;-2.473065567E1;-3.649687290E0;-1.091189957E1
7.528393177E0;-1.077887058E1;-2.558302402E0;3.517684221E0
7.545059166E0;-3.706996441E0;1.620432854E0;1.288435268E1
7.561725156E0;2.968800068E0;-7.323828697E0;7.351755142E0
7.578391146E0;9.503209114E0;-1.825625229E1;-9.148925781E0
7.595057135E0;5.274816990E0;-1.823462105E1;-1.103382778E1
7.611723125E0;1.664874554E0;-1.126605988E1;-4.324423790E0
7.628389114E0;6.886067390E0;-5.298754215E0;5.934152007E-1
7.645055104E0;1.079628849E1;-3.537079811E0;6.006354094E-1
7.661721093E0;1.007145309E1;-3.956135750E0;-1.195756674E0
7.678387083E0;6.422741890E0;-3.397591591E0;-1.191344976E0
7.695053073E0;3.350760221E0;-2.497418404E0;-1.064100266E0
7.711719062E0;9.725153446E-1;-1.587741852E0;-1.350218773E0
7.728385052E0;-1.550432682E0;-9.682083130E-1;-2.696174860E0
7.745051041E0;-3.805161476E0;4.061155319E-1;-4.351048946E0
7.761717031E0;-4.462288857E0;2.931960106E0;-5.980955124E0
7.778383021E0;-4.611979961E0;5.895625114E0;-3.473916531E0
7.795049010E0;-3.786823988E0;8.175033569E0;1.674836278E-1
7.811715000E0;-2.297193289E0;9.672237396E0;3.270282030E0
7.828380989E0;-1.623578310E0;9.171361923E0;4.368993759E0
7.845046979E0;-2.390226841E0;7.537117004E0;2.282385826E0
7.861712968E0;-2.532531500E0;5.501899719E0;-7.886397839E-2
7.878378958E0;-2.832164288E0;2.615056038E0;-1.451078415E0
7.895044948E0;-4.039582253E0;-1.438879967E0;-3.305238724E0
7.911710937E0;-5.358619213E0;-4.676586151E0;1.108376980E-1
7.928376927E0;-3.876520395E0;-3.970663071E0;6.115774155E0
7.945042916E0;-3.425514460E0;-2.060153961E0;8.434185028E0
7.961708906E0;-6.061593533E0;7.070407867E-1;9.131237030E0
7.978374896E0;-7.365546227E0;3.076320171E0;1.130267143E1
7.995040885E0;-7.221707344E0;2.794408798E0;8.688551903E0
8.011706875E0;-6.445736885E0;1.938586235E0;2.801762581E0
8.028372864E0;-5.307279587E0;2.618417740E0;-2.684735298E0
8.045038854E0;-4.015233994E0;3.407240868E0;-2.772038698E0
8.061704843E0;-4.190647125E0;3.023232937E0;-3.992805481E-1
8.078370833E0;-5.135409355E0;1.675665855E0;1.572451234E0
8.095036823E0;-3.101010084E0;-8.639888763E-1;1.861674547E0
8.111702812E0;-7.464628220E-1;-5.789240837E0;-5.693731308E-1
8.128368802E0;-2.670292854E-1;-9.749588966E0;-4.730565548E0
8.145034791E0;-5.544953346E-1;-1.413558102E1;-8.937361717E0
8.161700781E0;-3.507547379E-1;-1.970688820E1;-9.003602028E0
8.178366771E0;-8.289873123E0;-1.630608940E1;1.218947983E1
8.195032760E0;-5.509790897E0;-8.578673363E0;5.959121704E0
8.211698750E0;-7.843255997E-1;-6.493107319E0;-3.149203062E0
8.228364739E0;-1.709478855E0;-4.696431637E0;-5.461964607E0
8.245030729E0;-1.866962910E0;-2.819253922E0;-2.646651983E0
8.261696718E0;1.462652206E0;-2.134061337E0;3.882707357E-1
8.278362708E0;3.174132109E0;-7.679190636E-1;1.506630778E-1
8.295028698E0;5.242699623E0;1.048585415E0;-8.773101568E-1
8.311694687E0;7.897860050E0;3.071825504E0;-1.365727663E0
8.328360677E0;1.097815609E1;4.821694374E0;-1.617207527E0
8.345026666E0;1.301768684E1;6.155400753E0;-1.688434601E0
8.361692656E0;1.289098358E1;7.482990742E0;-1.652272463E0
8.378358646E0;1.021918869E1;8.889537811E0;-2.398089647E0
8.395024635E0;8.486010551E0;9.990760803E0;-1.107424259E0
8.411690625E0;7.192301273E0;1.133593369E1;8.419243813E0
8.428356614E0;2.782722235E0;1.208414268E1;9.311682701E0
8.445022604E0;-1.897150755E0;1.173544693E1;-1.899070859E0
8.461688593E0;-7.630785465E0;1.144085312E1;-1.605387688E0
8.478354583E0;-1.276254559E1;3.742414474E0;7.686963081E0
8.495020573E0;-4.361677170E-2;6.454463005E-1;-2.434765339E0
8.511686562E0;5.102225304E0;-1.306953430E0;-6.018597603E0
8.528352552E0;9.049466133E0;-1.467515755E1;-9.167760849E0
8.545018541E0;8.906544685E0;-2.505921936E1;-6.149114132E0
8.561684531E0;5.331368446E0;-2.350602722E1;6.170645952E-1
8.578350521E0;1.344019175E0;-1.512533474E1;-1.953997612E0
8.595016510E0;-2.898717880E0;-1.262291718E1;-1.481553793E0
8.611682500E0;-7.546923637E0;-9.553753853E0;-1.432327926E-1
8.628348489E0;-1.115913486E1;-7.327432632E0;5.853121281E-1
8.645014479E0;-1.115055084E1;-4.072036743E0;1.235384941E0
8.661680468E0;-9.253307343E0;-2.461919785E-1;3.094427586E-1
8.678346458E0;-8.040216446E0;2.115635872E0;-3.913676500E0
8.695012448E0;-7.156895638E0;3.133742809E0;-4.780698299E0
8.711678437E0;-6.175085068E0;3.362461567E0;1.418771744E0
8.728344427E0;-3.673488617E0;3.280134678E0;7.699255943E0
8.745010416E0;-1.987052917E0;3.994688034E0;9.829656601E0
8.761676406E0;-2.114789724E0;5.734027386E0;8.328154564E0
8.778342396E0;-3.623939037E0;7.808382034E0;3.997885704E0
8.795008385E0;-4.514119625E0;9.499742508E0;1.147037625E0
8.811674375E0;-4.753949165E0;1.128962135E1;1.004881859E-1
8.828340364E0;-4.402161598E0;1.224928379E1;8.289406300E-1
8.845006354E0;-2.677588463E0;1.262700081E1;2.228688240E0
8.861672343E0;-4.451590776E-1;1.226962280E1;4.089522362E0
8.878338333E0;1.930519581E0;1.127580166E1;5.270937443E0
8.895004323E0;4.382205009E-1;8.562390327E0;5.412545204E0
8.911670312E0;-4.588213921E0;2.227902412E0;1.790216565E0
8.928336302E0;-2.211874008E0;-1.934460640E0;-1.485649824E0
8.945002291E0;4.296846390E-1;-1.792639923E1;-7.232820988E0
8.961668281E0;4.468359947E0;-4.419028854E1;-1.664986610E1
8.978334271E0;2.121592045E0;-4.659887695E1;-1.782179832E1
8.995000260E0;-1.225357437E1;-1.488508987E1;7.661868095E0
9.011666250E0;-1.340101528E1;3.767666817E-1;1.609672356E1
9.028332239E0;-5.858520031E0;-2.120445251E0;7.561121464E0
9.044998229E0;-6.097972870E0;-1.990592003E0;7.691711187E-2
9.061664218E0;-1.698266983E0;-1.838023663E0;-4.121102333E0
9.078330208E0;2.595814943E0;-2.108645439E-1;-2.657285213E0
9.094996198E0;5.930848122E0;8.360829353E-1;-4.979617596E-1
9.111662187E0;8.850554466E0;2.420445919E0;5.688118935E-1
9.128328177E0;1.103686905E1;3.916924000E0;5.235584974E-1
9.144994166E0;1.178317261E1;5.615978241E0;8.889474273E-1
9.161660156E0;1.024305534E1;7.402188301E0;5.233173370E-1
9.178326146E0;7.674674511E0;9.757117271E0;-1.356100440E0
9.194992135E0;7.205681324E0;1.164522743E1;2.575361013E0
9.211658125E0;4.350522995E0;1.297664356E1;6.188491821E0
9.228324114E0;-8.630158901E-1;1.365603352E1;-3.405124426E0
9.244990104E0;-4.672737122E0;1.291629028E1;-9.024596214E0
9.261656093E0;-5.921822548E0;1.221052361E1;-2.328795910E0
9.278322083E0;-1.117659187E1;7.101371765E0;1.142041969E1
9.294988073E0;-1.606023788E0;3.583698273E0;3.181793928E0
9.311654062E0;8.676135540E-1;1.309609413E0;1.732242227E0
9.328320052E0;3.384115219E0;-4.643833160E0;-4.300837040E0
9.344986041E0;1.020641994E1;-2.154758835E1;-7.485632420E0
9.361652031E0;1.263918495E1;-3.306428909E1;-6.663608551E0
9.378318021E0;7.344143867E0;-2.728816605E1;-3.436637402E0
9.394984010E0;2.972218275E0;-1.567646027E1;1.114045858E0
9.411650000E0;-1.093433857E0;-8.004017830E0;2.680130959E0
9.428315989E0;-6.988733768E0;-9.157992363E0;2.006111622E0
9.444981979E0;-1.380703259E1;-8.667654991E0;-1.029799700E0
9.461647968E0;-1.702715492E1;-4.035195351E0;-7.376670837E0
9.478313958E0;-1.665977859E1;3.156442642E-1;-8.548487663E0
9.494979948E0;-1.193930721E1;3.164335728E0;1.471160412E0
9.511645937E0;-8.978127480E0;5.340376377E0;9.309621811E0
9.528311927E0;-7.497367859E0;6.727612495E0;1.338036156E1
9.544977916E0;-5.008068085E0;6.549557209E0;1.071553612E1
9.561643906E0;-3.082522631E0;5.826203346E0;4.280715942E0
9.578309896E0;-3.123351336E0;6.170782566E0;-9.658745527E-1
9.594975885E0;-3.656801462E0;8.403184891E0;-6.598900557E-1
9.611641875E0;-4.176711082E0;1.114361954E1;1.024618626E0
9.628307864E0;-3.841286659E0;1.262697220E1;2.218833923E0
9.644973854E0;-2.726025343E0;1.324398232E1;3.272693157E0
9.661639843E0;-9.092161059E-1;1.320274830E1;3.955384254E0
9.678305833E0;6.920564175E-1;1.212634087E1;3.305834770E0
9.694971823E0;2.087588310E0;1.116307640E1;2.336706400E0
9.711637812E0;-5.261784792E-1;6.091115952E0;1.239502668E0
9.728303802E0;-1.256272078E0;1.599355221E0;-1.846267223E0
9.744969791E0;-9.281356335E-1;-9.736948967E0;-5.212585926E0
9.761635781E0;1.986952782E0;-3.960446167E1;-1.265879059E1
9.778301771E0;3.209084511E0;-5.481742477E1;-2.070033836E1
9.794967760E0;-3.613589287E0;-2.595895958E1;-2.710914373E0
9.811633750E0;-9.652062416E0;-3.855575562E0;1.924478722E1
9.828299739E0;-5.030952930E0;1.427202225E-1;1.240460396E1
9.844965729E0;-2.346267223E0;-3.926826477E0;2.376117706E0
9.861631718E0;-2.401731968E0;-3.722486496E0;-3.164084435E0
9.878297708E0;8.769850731E-1;-1.974343300E0;-4.719226360E0
9.894963698E0;3.998934269E0;1.313653469E0;-1.364415884E0
9.911629687E0;7.382368565E0;2.968919754E0;6.708405018E-1
9.928295677E0;8.921147346E0;4.093961239E0;1.637557149E0
9.944961666E0;8.802801132E0;5.685699463E0;1.680282950E0
9.961627656E0;8.121328354E0;6.990120411E0;1.506213427E0
9.978293646E0;6.310913086E0;8.108333588E0;1.067251921E0
9.994959635E0;3.333717585E0;1.016529751E1;4.803768694E-1
1.001162562E1;1.280794621E0;1.274041367E1;2.545781374E0
1.002829161E1;-2.504115582E0;1.468203545E1;-8.384829760E-1
1.004495760E1;-8.511065483E0;1.534223843E1;-8.669290543E0
1.006162359E1;-1.018702221E1;1.411503029E1;-7.925496101E0
1.007828958E1;-8.206107140E0;1.183304501E1;-1.781008482E0
1.009495557E1;-9.395782471E0;5.446239471E0;1.253562832E1
1.011162156E1;-1.837325096E-1;-3.055914879E0;4.544623852E0
1.012828755E1;7.125336647E0;-7.596090317E0;-1.044445872E0
1.014495354E1;1.088801193E1;-1.786477661E1;-4.725151539E0
1.016161953E1;1.145981026E1;-2.772253036E1;-1.797351122E0
1.017828552E1;9.231332779E0;-2.924672318E1;6.690808773E0
1.019495151E1;6.061988354E0;-1.733904648E1;2.856781960E0
1.021161750E1;3.754390240E0;-9.675634384E0;-1.975914359E0
1.022828349E1;-9.644427299E-1;-8.508365631E0;-5.000897408E0
1.024494948E1;-1.000091648E1;-1.003341198E1;-7.954319000E0
1.026161547E1;-1.504706860E1;-9.188262939E0;-1.075389290E1
1.027828146E1;-1.713668823E1;-4.496696472E0;-7.231058121E0
1.029494745E1;-1.686448479E1;6.171674728E-1;1.725535870E0
1.031161344E1;-1.518185234E1;3.346904755E0;1.300294304E1
1.032827943E1;-1.273958874E1;6.179200172E0;1.607063675E1
1.034494542E1;-7.580360413E0;8.139551163E0;1.089574146E1
1.036161141E1;-4.091778278E0;7.518611431E0;5.516442299E0
1.037827740E1;-2.025196314E0;6.764505386E0;-9.285702705E-1
1.039494339E1;-1.294655442E0;7.458677292E0;-2.691134453E0
1.041160938E1;-1.968691230E0;9.574460030E0;3.345100880E-1
1.042827536E1;-2.076445580E0;1.143137074E1;1.013486743E0
1.044494135E1;-1.784369230E0;1.291887379E1;-8.377683163E-2
1.046160734E1;-8.143424988E-1;1.418688583E1;3.111958504E-3
1.047827333E1;6.004130244E-1;1.407434845E1;1.451577306E0
1.049493932E1;1.290948153E0;1.297482014E1;1.715378523E0
1.051160531E1;1.532295465E0;1.204866695E1;3.240932703E0
1.052827130E1;-1.697899818E0;7.488008499E0;3.548514128E0
1.054493729E1;-1.040162563E0;5.111373425E0;-6.592172384E-2
1.056160328E1;-3.308694601E0;-8.165370941E0;-4.575790405E0
1.057826927E1;-5.516715050E0;-4.530177689E1;-1.951661110E1
1.059493526E1;-7.683497429E0;-5.848714828E1;-2.633061218E1
1.061160125E1;-1.155110931E1;-2.622919273E1;3.449119329E-1
1.062826724E1;-1.200139999E1;-4.063870430E0;2.710902405E1
1.064493323E1;-1.684613228E0;-3.611805916E0;1.982278633E1
1.066159922E1;-2.632586002E0;-7.155837059E0;4.466622829E0
1.067826521E1;-7.297673225E-1;-6.948642731E0;-3.819217205E0
1.069493120E1;1.022494316E0;-3.864986420E0;-4.867687225E0
1.071159719E1;3.777663946E0;3.462438583E-1;-2.233920097E0
1.072826318E1;7.328884602E0;3.319560528E0;-2.509256601E-1
1.074492917E1;1.011774254E1;4.603489876E0;2.694239616E-1
1.076159516E1;1.143138981E1;5.766551971E0;5.671120882E-1
1.077826115E1;1.087872982E1;7.621901035E0;1.133502364E0
1.079492714E1;8.942771912E0;9.569336891E0;1.802286506E0
1.081159312E1;6.373064995E0;1.109426689E1;1.063392401E0
1.082825911E1;3.943171501E0;1.295356846E1;1.124333024E0
1.084492510E1;2.245752811E0;1.483571720E1;3.148154974E0
1.086159109E1;5.955770016E-1;1.592044353E1;3.786846161E0
1.087825708E1;-3.581519604E0;1.590419006E1;-4.102690220E0
1.089492307E1;-6.626692772E0;1.273264027E1;-8.392331123E0
1.091158906E1;-6.125850677E0;9.898901939E0;-2.683090210E0
1.092825505E1;-1.949755192E0;3.984972000E0;1.190852761E0
1.094492104E1;1.057829857E-1;-2.800263405E0;-3.069041967E0
1.096158703E1;1.963023663E0;-2.341752625E1;-5.883598804E0
1.097825302E1;2.853176594E0;-4.048831940E1;-3.900498390E0
1.099491901E1;1.040895748E1;-2.438233948E1;1.034473610E1
1.101158500E1;1.099712753E1;-1.190748310E1;8.336001396E0
1.102825099E1;4.919993401E0;-7.623580933E0;2.019089460E0
1.104491698E1;7.849166393E-1;-9.188487053E0;-4.599696636E0
1.106158297E1;-4.124634743E0;-1.088588238E1;-7.046205044E0
1.107824896E1;-9.103361130E0;-1.240164471E1;-8.854234695E0
1.109491495E1;-1.108463287E1;-1.133977699E1;-1.376101494E1
1.111158094E1;-1.370923233E1;-6.780444145E0;-1.221600819E1
1.112824693E1;-1.547936153E1;-2.285137177E0;-7.071172237E0
1.114491292E1;-1.503542042E1;1.105797768E0;1.564866900E0
1.116157891E1;-1.174711895E1;1.859102726E0;1.424428463E1
1.117824490E1;-1.063531017E1;5.386282444E0;1.881955147E1
1.119491088E1;-9.848379135E0;8.606802940E0;1.406334972E1
1.121157688E1;-8.482578278E0;9.291947365E0;6.776784420E0
1.122824286E1;-6.670063496E0;8.346306801E0;-1.713274598E0
1.124490885E1;-4.776581764E0;8.256647110E0;-5.544167519E0
1.126157484E1;-4.723873138E0;1.025683975E1;-2.160794258E0
1.127824083E1;-4.496429443E0;1.226698589E1;-7.485532761E-2
1.129490682E1;-3.651865244E0;1.355385399E1;5.129930973E-1
1.131157281E1;-2.101854324E0;1.410988045E1;1.311904669E0
1.132823880E1;-4.347499609E-1;1.390498352E1;2.452634573E0
1.134490479E1;6.242043972E-1;1.304506016E1;2.962266684E0
1.136157078E1;6.567651033E-1;1.135284233E1;3.745126724E0
1.137823677E1;-2.110096216E0;7.221365929E0;4.008852959E0
1.139490276E1;-2.924813271E0;3.903798103E0;-6.842906475E-1
1.141156875E1;-4.307139397E0;-5.042017937E0;-4.107838154E0
1.142823474E1;-7.203176022E0;-3.523109436E1;-1.522756767E1
1.144490073E1;-7.707493305E0;-5.493381882E1;-2.355407333E1
1.146156672E1;-1.430465698E0;-3.510068893E1;-1.202763176E1
1.147823271E1;-1.612004757E0;-1.192656422E1;1.534570122E1
1.149489870E1;-7.372103691E0;-7.614336014E-1;2.264614868E1
1.151156469E1;-1.303493977E0;-4.418500900E0;8.617442131E0
1.152823068E1;8.500168324E-1;-7.659543991E0;-2.489261389E0
1.154489667E1;7.859394550E-1;-7.668777466E0;-8.163254738E0
1.156156266E1;2.585779190E0;-4.105148315E0;-5.386321545E0
1.157822865E1;5.103119850E0;9.251422882E-1;1.263952017E0
1.159489464E1;7.321949959E0;3.678017139E0;4.277866840E0
1.161156063E1;8.829524994E0;4.090702057E0;3.570746660E0
1.162822661E1;8.553611755E0;4.592068195E0;2.752752066E0
1.164489260E1;7.175094604E0;6.348530293E0;3.485712051E0
1.166155859E1;5.320981026E0;8.534976959E0;4.028959274E0
1.167822458E1;3.702950001E0;1.086105537E1;3.742868423E0
1.169489057E1;2.339385033E0;1.300853157E1;2.514859200E0
1.171155656E1;1.437681556E0;1.504628754E1;-1.128234386E0
1.172822255E1;7.025778294E-1;1.552468681E1;-5.991836071E0
1.174488854E1;-2.281878710E0;1.455261803E1;-8.451237679E0
1.176155453E1;-3.241562128E0;1.305118275E1;-4.748328209E0
1.177822052E1;-1.532165766E0;1.155828762E1;1.668996572E0
1.179488651E1;1.762361884E0;4.984899521E0;6.522004128E0
1.181155250E1;1.014987707E0;1.251611710E-1;2.139391422E0
1.182821849E1;3.470551252E0;-1.306577587E1;6.408748627E-1
1.184488448E1;4.335590839E0;-3.532486725E1;-1.711459398E0
1.186155047E1;4.165023804E0;-4.066646576E1;-1.309593916E-1
1.187821646E1;6.148929119E0;-1.849003601E1;3.077461720E0
1.189488245E1;4.337489128E0;-6.697772980E0;2.011969566E0
1.191154844E1;1.116530538E0;-4.442917824E0;-2.162552834E0
1.192821443E1;-4.744434357E0;-6.399129868E0;-4.526990414E0
1.194488042E1;-8.741435051E0;-9.477611542E0;-8.570484161E0
1.196154641E1;-1.001973724E1;-9.413205147E0;-1.448915100E1
1.197821240E1;-1.349772739E1;-5.016762733E0;-1.130157852E1
1.199487839E1;-1.270255089E1;-1.126970291E0;-2.258348465E0
1.201154438E1;-1.048197460E1;7.599973679E-1;6.120214462E0
1.202821036E1;-7.288118362E0;1.957071781E0;1.562860870E1
1.204487635E1;-8.205992699E0;5.448769093E0;1.522920132E1
1.206154234E1;-8.480581284E0;7.466917038E0;9.699110985E0
1.207820833E1;-7.812594414E0;7.697506905E0;3.466247082E0
1.209487432E1;-7.544755459E0;7.621281147E0;-3.828414917E0
1.211154031E1;-7.403741837E0;9.470302582E0;-3.900950909E0
1.212820630E1;-6.815134048E0;1.200930214E1;-1.901986599E-1
1.214487229E1;-6.019337654E0;1.402710629E1;1.310044646E0
1.216153828E1;-4.579668045E0;1.526301003E1;1.704293847E0
1.217820427E1;-2.478905678E0;1.526633549E1;2.493886948E0
1.219487026E1;-7.879205346E-1;1.429823685E1;2.413665771E0
1.221153625E1;8.191639185E-1;1.247483444E1;3.214859486E0
1.222820224E1;-6.363322735E-1;7.706444263E0;4.824579716E0
1.224486823E1;-1.926646471E0;3.376358509E0;-1.663010359E0
1.226153422E1;-1.673219442E0;-2.357949257E0;-4.511803627E0
1.227820021E1;-2.911242247E0;-2.423910904E1;-8.306881905E0
1.229486620E1;-3.408024788E0;-5.107075119E1;-1.702048874E1
1.231153219E1;-3.681365728E0;-4.762017822E1;-2.250490952E1
1.232819818E1;-3.355085373E0;-2.088681412E1;-3.661143780E-2
1.234486417E1;-9.643618584E0;-4.292902946E0;2.615503693E1
1.236153016E1;-4.434525967E0;-2.310996056E0;1.799923325E1
1.237819615E1;-7.222838402E-1;-5.575291634E0;4.244732857E0
1.239486214E1;-3.627276421E-1;-5.166975021E0;-3.004638910E0
1.241152812E1;1.721931934E0;-2.671509743E0;-2.762079239E0
1.242819411E1;3.570733070E0;1.144131660E0;-1.863279343E-1
1.244486010E1;6.178831100E0;4.136664391E0;1.173098087E0
1.246152609E1;8.735619545E0;6.112847805E0;1.217820883E0
1.247819208E1;1.064361763E1;7.822487354E0;1.395055890E0
1.249485807E1;1.101651192E1;9.142908096E0;2.376181364E0
1.251152406E1;9.662395477E0;1.006941700E1;3.121084213E0
1.252819005E1;6.909901619E0;1.125648308E1;1.893096924E0
1.254485604E1;4.218058586E0;1.269413853E1;9.828482270E-1
1.256152203E1;1.848604202E0;1.460953045E1;5.382590890E-1
1.257818802E1;-1.202584982E0;1.574455357E1;-1.645691872E0
1.259485401E1;-4.927795887E0;1.516819382E1;-7.032700062E0
1.261152000E1;-6.540589809E0;1.366417885E1;-3.929678202E0
1.262818599E1;-4.897873878E0;7.845752716E0;5.663158417E0
1.264485198E1;1.858804941E0;9.733805656E-1;5.909523964E-1
1.266151797E1;3.863031387E0;-4.845576286E0;-5.525222778E0
1.267818396E1;5.872666836E0;-2.412774277E1;-4.727871895E0
1.269484995E1;6.090925694E0;-3.989170837E1;1.319866180E0
1.271151594E1;6.373043060E0;-3.095896149E1;5.300145626E0
1.272818193E1;1.397700310E0;-1.291120052E1;3.983083010E0
1.274484792E1;-1.323626518E0;-6.209115028E0;1.572117805E0
1.276151391E1;-2.017828703E0;-5.377904892E0;-4.122192383E0
1.277817990E1;-3.651729107E0;-6.634445190E0;-7.218210697E0
1.279484588E1;-4.515256882E0;-8.519516945E0;-1.264183044E1
1.281151188E1;-5.535453796E0;-8.347890854E0;-1.411205578E1
1.282817786E1;-9.017485619E0;-5.544271469E0;-9.989717484E0
1.284484385E1;-1.090076542E1;-2.658680916E0;-3.295977831E0
1.286150984E1;-1.248359871E1;6.786870956E-1;2.334851265E0
1.287817583E1;-1.373216248E1;2.720592976E0;1.394552231E1
1.289484182E1;-1.254287910E1;6.825195312E0;1.734654427E1
1.291150781E1;-1.002324200E1;9.411228180E0;1.164704227E1
1.292817380E1;-8.892099380E0;1.009997559E1;5.115077496E0
1.294483979E1;-8.521436691E0;1.030453205E1;-2.625541925E0
1.296150578E1;-7.575965881E0;1.160265350E1;-6.145703316E0
1.297817177E1;-6.157981396E0;1.317213249E1;-2.001670361E0
1.299483776E1;-4.361899853E0;1.402353859E1;1.705578566E0
1.301150375E1;-2.910387516E0;1.448166084E1;3.050096989E0
1.302816974E1;-2.090861559E0;1.408451557E1;2.471578598E0
1.304483573E1;-2.104703665E0;1.226161385E1;1.360147476E0
1.306150172E1;-1.604343772E0;9.140154839E0;1.719370127E0
1.307816771E1;-2.829037666E0;5.665274620E0;2.040349245E0
1.309483370E1;-3.171359539E0;1.508109093E0;-1.687576652E0
1.311149969E1;-3.947413921E0;-7.924543381E0;-5.549599171E0
1.312816568E1;-4.103168964E0;-3.977231598E1;-1.422775173E1
1.314483167E1;-3.820082188E0;-5.577282715E1;-2.343635941E1
1.316149766E1;-3.276128531E0;-3.402468872E1;-8.415452003E0
1.317816365E1;-5.082777500E0;-1.150054169E1;1.994640541E1
1.319482964E1;-6.819654465E0;-1.301876068E0;2.227469254E1
1.321149563E1;4.731764793E-1;-6.106612206E0;8.099178314E0
1.322816161E1;-7.012777328E-1;-6.452907562E0;-2.358450890E-1
1.324482760E1;3.156948090E-2;-4.655542374E0;-2.878789425E0
1.326149359E1;1.936414719E0;-1.124764442E0;-1.538189173E0
1.327815958E1;4.751386642E0;1.843829155E0;-7.835863829E-1
1.329482557E1;7.367463112E0;4.133025646E0;-4.021464586E-1
1.331149156E1;9.660802841E0;5.932735443E0;-7.767188549E-2
1.332815755E1;1.027623177E1;7.861111641E0;1.254234076E0
1.334482354E1;9.415669441E0;9.552549362E0;2.151093483E0
1.336148953E1;7.612839699E0;1.104544067E1;1.929313779E0
1.337815552E1;5.424102783E0;1.304127121E1;2.632306576E0
1.339482151E1;3.649929047E0;1.510885620E1;3.317129135E0
1.341148750E1;2.867071629E0;1.664081001E1;4.709989548E0
1.342815349E1;-5.478880405E-1;1.597257423E1;-3.889912844E0
1.344481948E1;-5.755598068E0;1.437570572E1;-9.613884926E0
1.346148547E1;-8.495723724E0;1.178289509E1;-4.378214359E0
1.347815146E1;-3.899188519E0;4.167979240E0;9.441605806E-1
1.349481745E1;-5.467536449E-1;-1.141299248E0;-5.517532825E-1
1.351148344E1;4.975350380E0;-1.440682411E1;-1.939654231E0
1.352814943E1;9.948905945E0;-3.322550201E1;5.440981388E-1
1.354481542E1;1.049995232E1;-4.026932526E1;6.487452507E0
1.356148141E1;6.894174576E0;-2.465717316E1;4.309545040E0
1.357814740E1;1.399784088E-1;-1.165176487E1;5.649749041E-1
1.359481338E1;-5.287647247E0;-8.441262245E0;-5.731436253E0
1.361147938E1;-7.840657234E0;-8.675628662E0;-1.058789444E1
1.362814536E1;-1.011198044E1;-9.210723877E0;-1.348264503E1
1.364481135E1;-1.134775162E1;-6.892310143E0;-9.475170135E0
1.366147734E1;-1.151269436E1;-3.899147987E0;-4.785196304E0
1.367814333E1;-1.082845020E1;-1.381998062E-1;3.414950371E-1
1.369480932E1;-1.019299030E1;2.771291733E0;6.281454086E0
1.371147531E1;-9.708904266E0;4.554876328E0;1.112911224E1
1.372814130E1;-9.738160133E0;6.472144127E0;1.213224220E1
1.374480729E1;-9.345894814E0;8.466606140E0;8.725850105E0
1.376147328E1;-1.008816147E1;1.013060570E1;3.501821041E0
1.377813927E1;-1.084865093E1;1.123001480E1;-1.880968094E0
1.379480526E1;-9.699147224E0;1.223118114E1;-2.494137764E0
1.381147125E1;-7.785349369E0;1.317403603E1;-4.610531330E-1
1.382813724E1;-5.998301983E0;1.402830505E1;5.821657181E-1
1.384480323E1;-4.139221668E0;1.509371281E1;2.064885616E0
1.386146922E1;-1.842217684E0;1.475420189E1;4.351931095E0
1.387813521E1;-1.032058835E0;1.270663548E1;4.251190662E0
1.389480120E1;-7.734677792E-1;9.866517067E0;3.918517113E0
1.391146719E1;-3.351162195E0;4.253326416E0;4.727494240E0
1.392813318E1;-3.457947254E0;-8.072910309E-1;-1.602222800E0
1.394479917E1;-4.740501404E0;-1.790269470E1;-6.945968628E0
1.396146516E1;-2.845479488E0;-5.407404327E1;-1.759798241E1
1.397813115E1;-3.355069399E0;-5.228731918E1;-2.587898827E1
1.399479714E1;-6.356763840E-2;-2.521355438E1;-7.567339897E0
1.401146312E1;1.429480314E0;-6.416439056E0;1.199904156E1
1.402812911E1;-5.659365177E0;1.433188438E0;2.334203720E1
1.404479510E1;1.112753153E0;-4.548193932E0;9.717749596E0
1.406146109E1;1.539790630E0;-6.046396255E0;1.069675684E0
1.407812708E1;1.791210175E0;-3.395764351E0;-2.552818298E0
1.409479307E1;3.818827868E0;-3.058433533E-2;-1.695626736E0
1.411145906E1;6.108439922E0;2.857811928E0;-1.258063316E-1
1.412812505E1;8.431980133E0;4.516486168E0;5.231772661E-1
1.414479104E1;1.017781067E1;5.503889084E0;1.731069088E0
1.416145703E1;1.033722115E1;5.998374939E0;3.182287693E0
1.417812302E1;8.884510040E0;7.134474754E0;4.992888451E0
1.419478901E1;6.431832314E0;9.135693550E0;5.859064102E0
1.421145500E1;3.707619667E0;1.178928089E1;6.084278107E0
1.422812099E1;1.322691083E0;1.397425270E1;4.528369904E0
1.424478698E1;-1.677644730E0;1.472736073E1;-1.270422459E0
1.426145297E1;-7.136217594E0;1.474459648E1;-1.010193825E1
1.427811896E1;-8.482435226E0;1.339619827E1;-7.651389599E0
1.429478495E1;-3.572598934E0;1.039835644E1;-3.992027044E-1
1.431145094E1;-1.549946070E0;4.754829407E0;3.376708984E0
1.432811693E1;7.470149994E-1;-3.753450394E0;1.952642202E0
1.434478292E1;2.398585796E0;-2.017038918E1;-5.062055588E-1
1.436144891E1;3.775029421E0;-4.212671661E1;-2.229526997E0
1.437811490E1;1.135441875E1;-3.324962616E1;6.146256447E0
1.439478089E1;8.708732605E0;-1.348727226E1;6.460887432E0
1.441144688E1;4.665870667E0;-5.743613243E0;2.553763390E0
1.442811286E1;1.591881633E0;-5.893436432E0;-4.753305435E0
1.444477885E1;-2.496872187E0;-9.250743866E0;-1.049667168E1
1.446144484E1;-7.010282516E0;-1.176208591E1;-1.294545746E1
1.447811083E1;-8.355545044E0;-8.779663086E0;-1.225624180E1
1.449477682E1;-9.904698372E0;-3.439678192E0;-6.857368469E0
1.451144281E1;-1.138028908E1;9.994707108E-1;-3.109519958E0
1.452810880E1;-1.205185318E1;1.493103981E0;6.597576618E0
1.454477479E1;-9.584984779E0;2.506332397E0;1.490924263E1
1.456144078E1;-9.033237457E0;5.507393837E0;1.402643108E1
1.457810677E1;-1.017846203E1;7.032875538E0;8.121033669E0
1.459477276E1;-1.152458954E1;7.778852463E0;3.361262798E0
1.461143875E1;-1.209045410E1;8.876381874E0;-7.123651505E-1
1.462810474E1;-1.085497570E1;9.383215904E0;-2.231746197E0
1.464477073E1;-8.551433563E0;1.054919434E1;-1.594652772E0
1.466143672E1;-5.251961708E0;1.166333294E1;-6.621623039E-2
1.467810271E1;-1.741127372E0;1.277563190E1;1.109519243E0
1.469476870E1;6.226999760E-1;1.336229420E1;2.679255962E0
1.471143469E1;1.971993804E0;1.293155193E1;3.354588747E0
1.472810068E1;2.788563728E0;1.213684368E1;2.874047279E0
1.474476667E1;1.598831415E0;9.398636818E0;3.170496225E0
1.476143266E1;-5.109621286E-1;4.922702789E0;-2.464248419E0
1.477809865E1;-8.242985010E-1;-6.405382156E-1;-5.794414043E0
1.479476464E1;-2.476406097E-1;-2.782378387E1;-1.234130955E1
1.481143063E1;-3.482999802E-1;-5.586332703E1;-2.066481781E1
1.482809661E1;1.421035290E0;-4.649437714E1;-1.726954079E1
1.484476260E1;-7.459739685E0;-1.564319134E1;4.652455330E0
1.486142859E1;-1.534462070E1;-3.398523331E-1;2.592040062E1
1.487809458E1;-1.150611877E1;1.821893215E0;1.625819206E1
1.489476057E1;-3.584840298E0;-3.148251534E0;4.161889076E0
1.491142656E1;-8.029413223E-1;-4.214637756E0;-2.266825199E0
1.492809255E1;2.329238415E0;-3.106858253E0;-5.446343422E0
1.494475854E1;4.389680386E0;7.283706665E-1;-4.442120552E0
1.496142453E1;6.484959126E0;4.284482479E0;-2.828584671E0
1.497809052E1;8.495282173E0;6.652975082E0;-1.245485425E0
1.499475651E1;9.750048637E0;8.740325928E0;4.106988907E-1
1.501142250E1;9.983030319E0;9.968056679E0;8.063122630E-1
1.502808849E1;8.969243050E0;1.205812263E1;2.885478497E0
1.504475448E1;7.804232597E0;1.386520863E1;3.396787405E0
1.506142047E1;4.682418346E0;1.548944855E1;2.194437981E0
1.507808646E1;-1.440652609E-1;1.602486038E1;-3.261726379E0
1.509475245E1;-5.573083878E0;1.597082424E1;-6.528132915E0
1.511141844E1;-9.680349350E0;1.536351585E1;-2.206034184E0
1.512808443E1;-1.543342781E1;1.086038780E1;1.486319447E1
1.514475042E1;-8.139760494E-1;-5.014867783E-1;5.753160000E0
1.516141641E1;4.476127625E0;-4.287564278E0;-5.779320717E0
1.517808240E1;8.839290619E0;-1.820505524E1;-6.264553070E0
1.519474838E1;1.220812798E1;-3.174834824E1;-1.428070664E0
1.521141438E1;1.117210007E1;-3.652770233E1;3.674018145E0
1.522808036E1;6.085330963E0;-2.507550430E1;9.897880554E-1
1.524474635E1;9.806914330E-1;-1.360882568E1;-2.930917740E-1
1.526141234E1;-5.476752758E0;-8.985223770E0;-2.367736816E0
1.527807833E1;-1.136393738E1;-6.251602173E0;-6.058366776E0
1.529474432E1;-1.431626129E1;-3.732382774E0;-6.650444031E0
1.531141031E1;-1.450221157E1;-5.428991318E-1;-5.080529690E0
1.532807630E1;-1.201758480E1;1.856455326E0;-1.227869034E0
1.534474229E1;-7.432766438E0;2.949523926E0;5.213212967E0
1.536140828E1;-3.358771324E0;3.290905952E0;1.074499512E1
1.537807427E1;-3.653638840E0;4.462276936E0;1.002514553E1
1.539474026E1;-5.227249622E0;6.136413574E0;4.518389702E0
1.541140625E1;-6.215628147E0;7.919450283E0;-1.469184875E0
1.542807224E1;-6.591899872E0;9.453420639E0;-3.342358828E0
1.544473823E1;-7.133377552E0;1.110618019E1;-9.235072136E-1
1.546140422E1;-7.111192226E0;1.263806438E1;1.437360525E0
1.547807021E1;-7.206885338E0;1.391717911E1;3.387856722E0
1.549473620E1;-7.856714249E0;1.450329304E1;5.255365372E0
1.551140219E1;-8.023968697E0;1.523977661E1;5.793284416E0
1.552806818E1;-6.812497616E0;1.397609329E1;5.977371216E0
1.554473417E1;-5.113890648E0;1.001164913E1;4.759607315E0
1.556140016E1;-6.565844536E0;3.875483990E0;3.034868479E0
1.557806615E1;-4.481369019E0;-3.704097748E0;-3.085336685E0
1.559473214E1;-2.819595337E0;-2.041110611E1;-8.406797409E0
1.561139813E1;9.402782917E-1;-4.981916046E1;-1.135095787E1
1.562806411E1;1.217778778E1;-5.739226151E1;-1.853390884E1
1.564473010E1;1.180172062E1;-2.755960464E1;3.553537607E0
1.566139609E1;1.377232552E0;-6.570095062E0;1.279810238E1
1.567806208E1;-7.967212677E0;1.460978031E0;1.232571411E1
1.569472807E1;-6.901749611E0;-2.099534988E0;4.267962456E0
1.571139406E1;-5.131058693E0;-4.802459717E0;-1.526084661E0
1.572806005E1;-5.904836655E-1;-5.890338898E0;-3.618241072E0
1.574472604E1;2.834683418E0;-1.978019714E0;-9.823048115E-1
1.576139203E1;6.137691498E0;2.144195557E0;1.196680069E0
1.577805802E1;9.008703232E0;5.299868584E0;2.489641666E0
1.579472401E1;1.103945923E1;7.161382675E0;2.777102470E0
1.581139000E1;1.155292320E1;8.643494606E0;3.056223869E0
1.582805599E1;1.013382244E1;1.016630077E1;4.250897884E0
1.584472198E1;7.841730118E0;1.135737419E1;5.495260715E0
1.586138797E1;5.609874725E0;1.287270546E1;6.615813732E0
1.587805396E1;1.343764544E0;1.471738052E1;5.056856632E0
1.589471995E1;-4.226809025E0;1.368939400E1;-4.831264496E0
1.591138594E1;-8.482051849E0;1.204512215E1;-9.203224182E0
1.592805193E1;-6.740124226E0;9.774480820E0;-4.423486710E0
1.594471792E1;-7.332265377E-1;6.683846951E0;3.505195379E-1
1.596138391E1;5.640652180E-1;2.725002289E0;3.656395674E0
1.597804990E1;2.244432449E0;-4.477151871E0;9.420169592E-1
1.599471589E1;3.642180920E0;-2.435010147E1;-4.485347271E0
1.601138188E1;4.553247929E0;-3.700211716E1;-4.286300182E0
1.602804786E1;9.881189346E0;-1.981971741E1;4.820922375E0
1.604471385E1;9.397390366E0;-9.715633392E0;5.703704357E0
1.606137984E1;5.826153755E0;-5.345630646E0;2.429959297E0
1.607804583E1;1.033385158E0;-6.129138947E0;-5.661218166E0
1.609471182E1;-6.050165176E0;-9.747248650E0;-1.192399979E1
1.611137781E1;-1.177862740E1;-1.148904705E1;-1.372762489E1
1.612804380E1;-1.256453705E1;-1.011700726E1;-1.012901878E1
1.614470979E1;-1.233367634E1;-4.559075356E0;-3.370564699E0
1.616137578E1;-1.307613659E1;1.386537552E-1;3.112528801E0
1.617804177E1;-1.279146671E1;1.847152233E0;1.480236244E1
1.619470776E1;-1.115015411E1;5.248578072E0;1.721681023E1
1.621137375E1;-1.019043827E1;7.778130531E0;1.015250301E1
1.622803974E1;-9.087653160E0;8.277741432E0;1.861112714E0
1.624470573E1;-7.675887585E0;7.830614090E0;-4.510154247E0
1.626137172E1;-6.736597061E0;9.261002541E0;-3.724021435E0
1.627803771E1;-6.173214436E0;1.157086754E1;1.647412777E-1
1.629470370E1;-4.958112717E0;1.311400032E1;2.290737391E0
1.631136969E1;-3.851105690E0;1.377813435E1;2.442324638E0
1.632803568E1;-2.832440138E0;1.400306511E1;2.035446167E0
1.634470167E1;-1.582133174E0;1.375020027E1;1.187620401E0
1.636136766E1;-8.754897118E-1;1.265433121E1;1.098503351E0
1.637803365E1;-2.001434565E0;9.370370865E0;2.660597324E0
1.639469964E1;-3.566687346E0;3.764156342E0;1.286586404E0
1.641136563E1;-2.957350016E0;-1.924154282E0;-2.629697323E0
1.642803161E1;-3.216473103E0;-2.055996704E1;-9.261104584E0
1.644469760E1;-5.313713551E-1;-5.286894226E1;-1.914711380E1
1.646136359E1;1.307358503E0;-4.790217590E1;-2.376749992E1
1.647802958E1;-7.234723568E-1;-1.966159058E1;-3.200245857E0
1.649469557E1;-9.411475182E0;-4.554369926E0;2.068791389E1
1.651136156E1;-7.995721817E0;-2.783090591E0;1.761608124E1
1.652802755E1;2.775125504E-1;-9.984734535E0;5.201938629E0
1.654469354E1;5.681481361E-1;-9.883582115E0;-2.097880840E0
1.656135953E1;2.225302696E0;-6.145233154E0;-2.479098082E0
1.657802552E1;4.075092316E0;-9.312286377E-1;1.119457126E0
1.659469151E1;6.898679733E0;2.579854965E0;2.238587856E0
1.661135750E1;9.337348938E0;4.617161274E0;1.842678308E0
1.662802349E1;1.100545311E1;6.094891548E0;1.479718089E0
1.664468948E1;1.147720528E1;7.994994640E0;2.673382759E0
1.666135547E1;1.072870255E1;8.860423088E0;2.226341724E0
1.667802146E1;8.918696404E0;1.025973129E1;1.117665052E0
1.669468745E1;6.501361847E0;1.350454426E1;-6.006765366E-2
1.671135344E1;5.135051727E0;1.571244621E1;-1.670552611E0
1.672801943E1;3.844784498E0;1.618337631E1;4.741594791E-1
1.674468542E1;-7.519178391E-1;1.528295517E1;-2.217735767E0
1.676135141E1;-4.019224644E0;1.409539604E1;-4.570064545E0
1.677801740E1;-5.812357903E0;1.316186810E1;-2.887238026E0
1.679468339E1;-7.886288166E0;1.032184982E1;3.448910952E0
1.681134938E1;-4.573858261E0;2.395270348E0;8.839274645E-1
1.682801536E1;-6.167546272E0;-1.041399097E1;-7.187983036E0
1.684468135E1;-4.866912365E0;-3.698014832E1;-7.162266731E0
1.686134734E1;6.970691681E0;-4.062612152E1;7.642703056E0
1.687801333E1;1.158234215E1;-2.032068253E1;1.346621132E1
1.689467932E1;6.337131500E0;-8.713252068E0;8.594838142E0
1.691134531E1;2.672172546E0;-6.327099800E0;9.693815708E-1
1.692801130E1;4.101576805E-1;-7.290625572E0;-9.612264633E0
1.694467729E1;-3.856782913E0;-7.284649849E0;-1.444993305E1
1.696134328E1;-3.777248859E0;-8.606764793E0;-1.477484798E1
1.697800927E1;-3.277660847E0;-8.034143448E0;-9.686481476E0
1.699467526E1;-6.726923466E0;-5.268689156E0;-6.417092323E0
1.701134125E1;-1.084548950E1;-2.691829681E0;-5.310141563E0
1.702800724E1;-1.506451416E1;-5.580730438E-1;3.849799871E0
1.704467323E1;-1.257129765E1;2.041025162E0;1.456708622E1
1.706133922E1;-8.881541252E0;5.604990005E0;1.618832016E1
1.707800521E1;-8.074417114E0;7.466960907E0;9.478307724E0
1.709467120E1;-7.862507820E0;7.451130867E0;7.498328686E-1
1.711133719E1;-8.187292099E0;7.869958878E0;-4.232318401E0
1.712800318E1;-7.846884727E0;9.036029816E0;-2.116679192E0
1.714466917E1;-6.701963902E0;1.120648003E1;-6.446993351E-2
1.716133516E1;-6.087984562E0;1.315599346E1;-3.128612041E-2
1.717800115E1;-5.254337788E0;1.422749710E1;-1.511437893E-1
1.719466714E1;-3.225606441E0;1.426747131E1;9.104501009E-1
1.721133312E1;-7.930309772E-1;1.355507088E1;2.168424606E0
1.722799911E1;1.135109067E0;1.268302345E1;3.029701233E0
1.724466510E1;2.948523164E-1;1.119186306E1;5.987865448E0
1.726133109E1;-3.251199245E0;4.335952759E0;2.912615776E0
1.727799708E1;-3.678851128E0;-2.711120605E0;-1.676575899E0
1.729466307E1;-4.494335175E0;-3.285131073E1;-1.152280521E1
1.731132906E1;-2.006904840E0;-6.201124954E1;-2.380372810E1
1.732799505E1;-1.605594873E0;-4.075992966E1;-1.560238171E1
1.734466104E1;-5.811214924E0;-1.180699825E1;1.198167801E1
1.736132703E1;-9.282420158E0;-1.582179070E0;2.546734047E1
1.737799302E1;-7.121672630E-1;-5.323215485E0;1.228128910E1
1.739465901E1;-2.193646431E-1;-8.113571167E0;2.727639675E-1
1.741132500E1;1.105604887E0;-6.265007973E0;-3.935252428E0
1.742799099E1;2.768066883E0;-1.976540565E0;-2.350470781E0
1.744465698E1;5.033651829E0;2.111877441E0;-2.873897552E-1
1.746132297E1;7.253654957E0;4.817157745E0;1.015734315E0
1.747798896E1;9.416460991E0;6.354378700E0;2.224615335E0
1.749465495E1;9.747531891E0;7.470108032E0;2.550742865E0
1.751132094E1;8.695110321E0;8.860249519E0;3.311165810E0
1.752798693E1;6.988871098E0;1.060354805E1;3.923274040E0
1.754465292E1;4.142699718E0;1.234469032E1;3.104375839E0
1.756131891E1;1.312764883E0;1.434888840E1;2.491979361E0
1.757798490E1;-2.166532040E0;1.652952576E1;6.597462296E-1
1.759465088E1;-9.121042252E0;1.739153671E1;-7.363278866E0
1.761131688E1;-1.065611172E1;1.515250206E1;-7.765507698E0
1.762798286E1;-7.472416878E0;1.234017563E1;-2.439544678E0
1.764464885E1;-4.033679008E0;8.521103859E0;5.928122520E0
1.766131484E1;2.421724558E0;4.684257507E-2;4.349903107E0
1.767798083E1;4.357138157E0;-2.452067375E0;-3.002100468E0
1.769464682E1;3.886613131E0;-2.063687706E1;-1.445317984E0
1.771131281E1;3.640857697E0;-3.950254440E1;-3.594678640E0
1.772797880E1;6.453712940E0;-4.142799377E1;-1.610765815E0
1.774464479E1;8.626668930E0;-1.586648655E1;4.858137608E0
1.776131078E1;5.980624199E0;-6.327514648E0;3.912378550E0
1.777797677E1;2.624582767E0;-3.239281654E0;6.322108507E-1
1.779464276E1;-3.135836601E0;-5.598583221E0;-5.638649464E0
1.781130875E1;-7.405245781E0;-9.594175339E0;-1.239224434E1
1.782797474E1;-9.983914375E0;-8.844038963E0;-1.524946880E1
1.784464073E1;-1.139006805E1;-4.917992592E0;-8.593549728E0
1.786130672E1;-1.224770069E1;-7.055273056E-1;-3.191870689E0
1.787797271E1;-1.233695126E1;9.775276184E-1;8.560165405E0
1.789463870E1;-1.138133717E1;3.722019196E0;1.819621658E1
1.791130469E1;-1.024441814E1;7.200609207E0;1.534951210E1
1.792797068E1;-8.317017555E0;8.243052483E0;6.985562325E0
1.794463667E1;-7.170525551E0;8.130176544E0;-3.118201733E0
1.796130266E1;-6.523376465E0;8.558271408E0;-5.410256863E0
1.797796865E1;-6.904074192E0;1.025214291E1;-1.522747159E0
1.799463464E1;-6.749506474E0;1.269228935E1;8.760545850E-1
1.801130062E1;-5.948024750E0;1.433852673E1;1.263053179E0
1.802796661E1;-4.583887100E0;1.493409538E1;1.947815537E0
1.804463260E1;-2.040099621E0;1.454516220E1;3.288274527E0
1.806129859E1;-1.694936454E-1;1.317287254E1;3.837028027E0
1.807796458E1;3.375529051E-1;1.125815487E1;4.108968735E0
1.809463057E1;-3.009220839E0;6.003675461E0;5.179845810E0
1.811129656E1;-3.552273750E0;3.229217529E-1;-1.549691200E0
1.812796255E1;-4.175724030E0;-9.198768616E0;-6.793479919E0
1.814462854E1;-4.431261063E0;-3.814539719E1;-1.116538334E1
1.816129453E1;5.680446625E-1;-5.761257935E1;-2.070509148E1
1.817796052E1;4.317473412E0;-3.502421570E1;-2.983062983E0
1.819462651E1;-2.400564432E0;-8.935746193E0;9.059514999E0
1.821129250E1;-5.711307526E0;-8.015813828E-1;1.401960373E1
1.822795849E1;-2.409809351E0;-4.226442337E0;6.333863258E0
1.824462448E1;-1.041374207E0;-6.622519493E0;3.417422771E-1
1.826129047E1;1.838898659E-1;-6.195587158E0;-2.568839312E0
1.827795646E1;2.680485725E0;-2.942212105E0;-1.954994917E0
1.829462245E1;4.888288498E0;1.410037994E0;3.349621296E-1
1.831128844E1;6.865197659E0;4.390244484E0;1.685756326E0
1.832795443E1;8.353459358E0;6.345193386E0;1.838328719E0
1.834462042E1;9.440304756E0;7.507519245E0;2.025388241E0
1.836128641E1;9.718841553E0;8.601984024E0;3.565241814E0
1.837795240E1;8.832297325E0;9.771129608E0;4.587796211E0
1.839461838E1;6.681516647E0;1.066198540E1;3.257184029E0
1.841128438E1;4.033663273E0;1.236914539E1;7.768335938E-1
1.842795036E1;1.053402066E0;1.487877846E1;-1.638720036E0
1.844461635E1;-3.116556644E0;1.662825966E1;-5.822248459E0
1.846128234E1;-7.044575691E0;1.539239311E1;-7.768254757E0
1.847794833E1;-6.311487198E0;1.301003361E1;-2.715740681E0
1.849461432E1;-4.228826523E0;8.860391617E0;6.972927094E0
1.851128031E1;3.390555382E-1;3.661289215E-1;6.626934528E0
1.852794630E1;3.508124828E0;-4.864748955E0;-3.580055237E-1
1.854461229E1;6.304852009E0;-2.410352707E1;4.843815565E-1
1.856127828E1;9.811015129E0;-4.815408707E1;1.462621689E-1
1.857794427E1;7.372220993E0;-3.927605820E1;1.263023853E0
1.859461026E1;4.281748772E0;-1.250419903E1;2.404291868E0
1.861127625E1;2.194977045E0;-5.823462486E0;1.790109873E-1
1.862794224E1;-2.524875164E0;-4.891195297E0;-3.992177725E0
1.864460823E1;-9.862957954E0;-7.030755997E0;-9.329574585E0
1.866127422E1;-1.470270920E1;-7.147161484E0;-1.461812878E1
1.867794021E1;-1.708456993E1;-3.305036545E0;-1.046504307E1
1.869460620E1;-1.455648422E1;6.006088257E-1;-1.909207582E0
1.871127219E1;-1.095677090E1;1.766694546E0;6.422262669E0
1.872793818E1;-7.870643616E0;1.727637291E0;1.711406898E1
1.874460417E1;-7.828821182E0;5.356950760E0;1.662166214E1
1.876127016E1;-7.800633907E0;7.582808018E0;9.155386925E0
1.877793615E1;-7.470034599E0;7.504244328E0;1.601166368E0
1.879460214E1;-6.521023750E0;6.705694199E0;-4.600423336E0
1.881126812E1;-6.137159824E0;7.685697556E0;-4.517710686E0
1.882793411E1;-7.296941757E0;1.054809093E1;-9.400570393E-1
1.884460010E1;-7.315095901E0;1.280311298E1;3.728578091E-1
1.886126609E1;-5.488789558E0;1.439025974E1;1.580728292E0
1.887793208E1;-2.651583910E0;1.456947708E1;2.733606815E0
1.889459807E1;-7.428043485E-1;1.378003120E1;1.998295069E0
1.891126406E1;-1.649769247E-1;1.217713451E1;9.539209008E-1
1.892793005E1;-1.213043630E-1;1.031212807E1;2.866273165E0
1.894459604E1;-2.839838743E0;3.745200157E0;1.448235273E0
1.896126203E1;-2.718039513E0;-9.279441833E-1;-1.208512187E0
1.897792802E1;-5.763610840E0;-1.712196732E1;-3.882320881E0
1.899459401E1;-4.960913181E0;-4.862350845E1;-1.562321663E1
1.901126000E1;8.700566292E-1;-5.435102844E1;-2.017204094E1
1.902792599E1;2.757173538E0;-2.317043686E1;-1.733908415E0
1.904459198E1;2.574591637E0;-6.491934776E0;1.290958786E1
1.906125797E1;5.991091728E-1;8.245658875E-2;1.586805916E1
1.907792396E1;2.267378569E0;-3.888862610E0;5.357555866E0
1.909458995E1;1.216900110E0;-5.196962357E0;-1.323802233E0
1.911125594E1;2.257235050E-1;-2.575269699E0;-2.004781723E0
1.912792193E1;3.833976507E0;8.134279251E-1;9.555139542E-1
1.914458792E1;5.712582588E0;3.810120106E0;2.932380676E0
1.916125391E1;6.471542358E0;5.130562782E0;2.424241066E0
1.917791990E1;6.795177460E0;6.085084915E0;1.754240632E0
1.919458589E1;6.799231529E0;7.700147629E0;2.901190758E0
1.921125188E1;6.222559929E0;9.448254585E0;4.701355934E0
1.922791786E1;4.393020153E0;1.134853363E1;4.985571384E0
1.924458385E1;1.957147598E0;1.354192066E1;3.025239468E0
1.926124984E1;-1.244436741E0;1.492447567E1;-1.846211910E0
1.927791583E1;-5.129923344E0;1.517023182E1;-8.658626556E0
1.929458182E1;-6.423822403E0;1.411087513E1;-8.059082985E0
1.931124781E1;-2.465559006E0;1.146984482E1;-1.984371185E0
1.932791380E1;-2.144415379E-1;7.898823738E0;4.255871773E0
1.934457979E1;2.011250019E0;8.174891472E-1;3.122677803E0
1.936124578E1;3.256477118E0;-5.122219086E0;1.109091997E0
1.937791177E1;4.260387897E0;-2.452072906E1;-1.651145339E0
1.939457776E1;6.740225792E0;-4.351023102E1;-1.270050406E0
1.941124375E1;9.817281723E0;-2.962473297E1;2.753714561E0
1.942790974E1;5.530958652E0;-1.053165722E1;3.814099789E0
1.944457573E1;2.755191326E0;-5.135083199E0;1.230433583E0
1.946124172E1;-1.384776115E0;-6.494587898E0;-4.670045853E0
1.947790771E1;-8.749452591E0;-1.012406158E1;-1.136853600E1
1.949457370E1;-1.435154533E1;-1.036479092E1;-1.533084202E1
1.951123969E1;-1.474904156E1;-5.078657150E0;-7.671085835E0
1.952790568E1;-1.286994839E1;3.215560913E-1;-1.549428821E0
1.954457167E1;-1.043160725E1;2.802744865E0;5.850320816E0
1.956123766E1;-7.165733337E0;3.038978100E0;1.640124321E1
1.957790365E1;-7.157945633E0;5.802487850E0;1.553946495E1
1.959456964E1;-6.842690468E0;7.501587868E0;8.811513901E0
1.961123563E1;-6.600597382E0;7.849894524E0;4.689431190E-2
1.962790161E1;-6.997500896E0;8.453248024E0;-5.695273399E0
1.964456760E1;-7.508369923E0;1.084565449E1;-2.053970575E0
1.966123359E1;-8.037046432E0;1.350156021E1;1.657667398E0
1.967789958E1;-7.709727287E0;1.502719688E1;2.999558449E0
1.969456557E1;-6.133755207E0;1.557695389E1;4.013531685E0
1.971123156E1;-4.160540104E0;1.529020786E1;4.602259636E0
1.972789755E1;-2.145374537E0;1.343555927E1;3.210935116E0
1.974456354E1;-7.704324126E-1;1.102929592E1;1.901481390E0
1.976122953E1;-1.563758492E0;6.892823696E0;2.077723265E0
1.977789552E1;-2.089429379E0;1.656886101E0;-2.613123894E0
1.979456151E1;-1.631705999E0;-8.693512917E0;-5.699051857E0
1.981122750E1;-9.630961418E-1;-4.263850403E1;-7.634284973E0
1.982789349E1;2.645470619E0;-6.246389771E1;-2.120309448E1
1.984455948E1;4.084823132E-1;-3.764919281E1;-8.244948387E0
1.986122547E1;-2.580416679E0;-1.072406292E1;4.959206104E0
1.987789146E1;-6.605637550E0;1.069025040E0;2.060912323E1
1.989455745E1;-5.156492233E0;1.162265301E0;1.511863899E1
1.991122344E1;1.101641178E0;-5.422263145E0;4.361798286E0
1.992788943E1;1.967120409E0;-4.770448685E0;-1.242492199E-1
1.994455542E1;2.832041025E0;-1.619185448E0;-1.381054044E0
1.996122141E1;4.688852310E0;1.776676178E0;-1.324802637E0
1.997788740E1;6.451796532E0;4.628237724E0;-1.297081232E0
1.999455338E1;8.068678856E0;6.805096626E0;-5.207793713E-1
2.001121938E1;8.954169273E0;8.180541039E0;9.749299288E-1
2.002788536E1;8.501686096E0;9.342532158E0;1.339410782E0
2.004455135E1;6.445367336E0;1.056855011E1;-4.223275185E-2
2.006121734E1;3.592442989E0;1.246246719E1;-3.525968790E-1
2.007788333E1;1.269829750E0;1.517901039E1;7.103751302E-1
2.009454932E1;-3.222680807E0;1.667354965E1;-2.697315216E0
2.011121531E1;-6.231795311E0;1.594224548E1;-5.032480240E0
2.012788130E1;-8.532038689E0;1.465811157E1;5.019007921E-1
2.014454729E1;-1.061765957E1;8.908241272E0;1.461363983E1
2.016121328E1;2.133682251E0;8.795232773E-1;-1.147354722E0
2.017787927E1;4.105975151E0;-7.723665237E-1;-8.134305954E0
2.019454526E1;7.294253826E0;-1.417246246E1;-4.627225876E0
2.021121125E1;1.155425453E1;-2.955830956E1;-5.649975777E0
2.022787724E1;1.067809772E1;-3.941177750E1;-2.119505405E-2
2.024454323E1;7.466735840E0;-2.627713394E1;1.520359993E0
2.026120922E1;4.519026279E0;-1.270093346E1;2.869512081E0
2.027787521E1;-2.160065174E-1;-8.382381439E0;1.216562390E0
2.029454120E1;-6.976703644E0;-8.534487724E0;-1.862104177E0
2.031120719E1;-1.160392666E1;-7.217022896E0;-7.221631050E0
2.032787318E1;-1.656630516E1;-3.265321732E0;-1.089677429E1
2.034453917E1;-1.672429657E1;-7.844600677E-1;-7.192782402E0
2.036120516E1;-1.322182941E1;9.907865524E-1;-1.779043674E-1
2.037787115E1;-7.930422783E0;1.091787338E0;1.131509018E1
2.039453714E1;-7.774077415E0;4.049114227E0;1.425205040E1
2.041120312E1;-8.842538834E0;7.195236206E0;1.063526440E1
2.042786911E1;-8.858025551E0;9.029553413E0;4.676279068E0
2.044453510E1;-8.367656708E0;1.033229542E1;-1.735791087E0
2.046120109E1;-8.061044693E0;1.146848774E1;-2.485720634E0
2.047786708E1;-8.162055016E0;1.343119812E1;1.700933099E0
2.049453307E1;-8.164655685E0;1.500880241E1;3.720495224E0
2.051119906E1;-7.207514286E0;1.547296143E1;3.492630482E0
2.052786505E1;-4.325320244E0;1.417508221E1;2.764195919E0
2.054453104E1;-1.588308334E0;1.185729980E1;3.241571903E0
2.056119703E1;-1.782547712E0;9.922456741E0;4.252256393E0
2.057786302E1;-5.508017063E0;2.678627968E0;2.665194750E0
2.059452901E1;-4.172413349E0;-4.121503830E0;-4.036098480E0
2.061119500E1;-3.972512722E0;-2.329413414E1;-9.880558014E0
2.062786099E1;4.085125446E0;-5.407441330E1;-1.537072086E1
2.064452698E1;9.104457855E0;-5.198617554E1;-1.294894791E1
2.066119297E1;6.309180260E0;-2.116236115E1;5.823629856E0
2.067785896E1;-1.918268919E0;-3.829797745E0;1.305995941E1
2.069452495E1;-9.320445061E0;3.608777046E0;1.471015358E1
2.071119094E1;-4.493486881E0;-1.311714172E0;5.386862278E0
2.072785693E1;-2.063697815E0;-3.616695404E0;1.072698116E0
2.074452292E1;9.883258343E-1;-3.448802948E0;-1.077623367E-1
2.076118891E1;4.197996616E0;-8.049821854E-1;5.439862013E-1
2.077785490E1;6.117023468E0;2.382719040E0;1.228811026E0
2.079452088E1;7.363852024E0;5.064180851E0;9.143930674E-1
2.081118688E1;8.108758926E0;7.589202881E0;9.506272674E-1
2.082785286E1;8.143104553E0;9.850419044E0;1.991156459E0
2.084451885E1;6.956019402E0;1.160972118E1;2.740152359E0
2.086118484E1;4.961918831E0;1.200251198E1;1.783995032E0
2.087785083E1;2.413759708E0;1.425738525E1;6.525510550E-1
2.089451682E1;-2.582349539E0;1.628252411E1;-5.450629234E0
2.091118281E1;-7.077403545E0;1.574517345E1;-7.694688320E0
2.092784880E1;-6.642094612E0;1.455783558E1;-1.461249590E-1
2.094451479E1;-4.223783016E0;9.745712280E0;9.215252876E0
2.096118078E1;3.057046652E0;1.284133911E0;5.152018070E0
2.097784677E1;5.068965912E0;1.286888123E0;-5.195237160E0
2.099451276E1;7.367070198E0;-1.060795689E1;-5.488553047E0
2.101117875E1;9.926780701E0;-2.914033508E1;-7.636872530E-1
2.102784474E1;1.226500893E1;-4.619901657E1;4.114783287E0
2.104451073E1;3.882505894E0;-2.980374908E1;-4.485346079E-1
2.106117672E1;-3.465183258E0;-1.142641449E1;-2.174922228E-1
2.107784271E1;-4.590252876E0;-5.959817886E0;-2.990295649E0
2.109450870E1;-7.564815998E0;-4.997586250E0;-6.665120125E0
2.111117469E1;-1.257905579E1;-4.032086372E0;-6.753163815E0
2.112784068E1;-1.595216465E1;-1.351664543E0;-4.707211018E0
2.114450667E1;-1.527418041E1;5.842857361E-1;-3.537537575E0
2.116117266E1;-1.254341602E1;2.029432774E0;1.222342730E0
2.117783865E1;-8.076299667E0;2.823072433E0;9.971601486E0
2.119450464E1;-5.814579010E0;5.148202896E0;1.356960201E1
2.121117062E1;-5.728698730E0;7.760793686E0;9.722512245E0
2.122783661E1;-5.832756519E0;8.996686935E0;4.316550732E0
2.124450260E1;-6.113258839E0;1.019238472E1;-1.194155335E0
2.126116859E1;-6.263527393E0;1.157728004E1;-3.220541477E0
2.127783458E1;-6.016867638E0;1.266840744E1;-1.599685550E0
2.129450057E1;-5.188554287E0;1.322339058E1;-2.602391243E-1
2.131116656E1;-4.773757458E0;1.435008240E1;3.216679096E-1
2.132783255E1;-4.046208858E0;1.496426201E1;2.621164322E0
2.134449854E1;-3.198631763E0;1.423108196E1;5.277218819E0
2.136116453E1;-4.202136040E0;1.043908787E1;8.141958237E0
2.137783052E1;-4.537206650E0;3.352392197E0;2.920259476E0
2.139449651E1;-2.858142853E0;-3.464939117E0;-2.531467438E0
2.141116250E1;-9.920694828E-1;-3.298122787E1;-1.226840115E1
2.142782849E1;4.934871674E0;-6.232111740E1;-1.942637444E1
2.144449448E1;5.018959522E0;-4.534575653E1;-1.625081825E1
2.146116047E1;3.611276150E0;-1.771639442E1;-1.587650061E0
2.147782646E1;-7.374475479E0;-1.787737846E0;1.389626122E1
2.149449245E1;-1.520678043E1;4.600042343E0;2.498344421E1
2.151115844E1;-4.518806458E0;-2.072648048E0;9.566341400E0
2.152782443E1;1.322952271E0;-3.647926331E0;2.853668690E0
2.154449042E1;3.683610678E0;-3.067826271E0;-9.094846249E-1
2.156115641E1;4.960587502E0;-4.340209961E-1;-1.678747416E0
2.157782240E1;6.067109108E0;2.677257538E0;-1.687076807E0
2.159448839E1;7.393989086E0;5.062556267E0;-1.452193975E0
2.161115438E1;8.360458374E0;7.355089188E0;-8.082549572E-1
2.162782036E1;8.478567123E0;9.455890656E0;-1.254371762E0
2.164448635E1;8.062091827E0;1.141440201E1;-2.229499817E0
2.166115234E1;7.010731697E0;1.443994331E1;1.112086773E0
2.167781833E1;4.122136593E0;1.644272614E1;2.750949383E0
2.169448432E1;-1.165266395E0;1.745056725E1;-1.864435315E0
2.171115031E1;-4.967070580E0;1.633614159E1;-2.625458002E0
2.172781630E1;-9.419708252E0;1.598146248E1;4.166890621E0
2.174448229E1;-9.642449379E0;8.502561569E0;1.265290928E1
2.176114828E1;4.262194633E-1;2.138517857E0;1.369864464E0
2.177781427E1;2.524602413E0;3.139268398E0;-9.090118408E0
2.179448026E1;4.973925591E0;-4.747100830E0;-8.809343338E0
2.181114625E1;1.032338238E1;-2.204638672E1;-2.941020012E0
2.182781224E1;1.263513756E1;-3.795455933E1;-5.005055428E0
2.184447823E1;4.888510704E0;-3.997198486E1;-8.326062202E0
2.186114422E1;-1.338295460E0;-2.774543190E1;-2.391448259E0
2.187781021E1;-1.603256702E0;-1.183499908E1;3.226956844E0
2.189447620E1;-4.592134476E0;-5.711579323E0;3.266278505E0
2.191114219E1;-1.035692787E1;-3.804633141E0;2.912613392E0
2.192780818E1;-1.579989243E1;-1.350708961E0;1.783986926E0
2.194447417E1;-1.783250999E1;1.691647530E0;2.031077623E0
2.196114016E1;-1.415267181E1;4.220874786E0;5.035037041E0
2.197780615E1;-1.080493164E1;6.089554787E0;6.630846024E0
2.199447214E1;-8.608966827E0;6.426182747E0;6.851797581E0
2.201113813E1;-5.852722168E0;6.636051655E0;3.171616077E0
2.202780411E1;-3.539356232E0;7.186557293E0;-3.526107073E-1
2.204447010E1;-3.890670538E0;9.580102921E0;-1.270467043E0
2.206113609E1;-5.000437737E0;1.251855850E1;6.074162722E-1
2.207780208E1;-5.927319050E0;1.459686470E1;2.852064371E0
2.209446807E1;-5.530580044E0;1.497740173E1;5.931276321E0
2.211113406E1;-5.240802288E0;1.519357681E1;7.326527596E0
2.212780005E1;-4.154530525E0;1.393984509E1;5.165507317E0
2.214446604E1;-2.325929403E0;1.138159943E1;3.479634047E0
2.216113203E1;-4.396298885E0;3.463798046E0;1.198044300E0
2.217779802E1;-1.941669464E0;-1.490694046E0;-5.121795177E0
2.219446401E1;-7.155156136E-1;-1.625479507E1;-8.814378738E0
2.221113000E1;1.913120270E0;-4.490833282E1;-1.134303093E1
2.222779599E1;5.454065323E0;-5.726210785E1;-2.055469131E1
2.224446198E1;1.432573318E0;-2.766251755E1;-5.205961227E0
2.226112797E1;-7.935533047E0;-5.626954079E0;8.486804962E0
2.227779396E1;-1.044428349E1;2.042826176E0;1.801013374E1
2.229445995E1;-3.712709904E0;-2.617523193E0;9.845233917E0
2.231112594E1;-3.884949684E-1;-3.657454491E0;3.547948837E0
2.232779193E1;1.964224815E0;-2.965257645E0;2.558779716E-1
2.234445792E1;4.179515362E0;-9.484329224E-1;-1.278651953E-1
2.236112391E1;6.315550804E0;1.803946495E0;-5.870468616E-1
2.237778990E1;8.099909782E0;4.838484287E0;-1.108009338E0
2.239445589E1;9.536872864E0;7.337106228E0;-1.041010022E0
2.241112188E1;1.018980408E1;9.515620232E0;5.425063372E-1
2.242778786E1;9.365267754E0;1.117854786E1;1.086657763E0
2.244445385E1;7.640511513E0;1.204054260E1;3.327915668E-1
2.246111984E1;6.590259552E0;1.461489964E1;1.255682111E0
2.247778583E1;3.727073669E0;1.761663818E1;3.320528984E0
2.249445182E1;-2.462244987E0;1.710381317E1;-5.714916229E0
2.251111781E1;-6.446853161E0;1.446745110E1;-6.023549080E0
2.252778380E1;-6.728181839E0;1.189107609E1;2.625404835E0
2.254444979E1;-5.048691750E0;4.535541058E0;1.101699734E1
2.256111578E1;7.853522301E-1;2.809629917E0;-1.062624097E0
2.257778177E1;1.433668852E0;-4.431069374E0;-6.559518814E0
2.259444776E1;5.778120041E0;-2.970922852E1;-7.702124119E0
2.261111375E1;7.027439117E0;-4.003017426E1;-1.101851845E1
2.262777974E1;4.463538170E0;-2.770026779E1;-8.976124763E0
2.264444573E1;4.634403706E0;-1.440224171E1;7.557312012E0
2.266111172E1;2.561950684E0;-6.961086273E0;9.031879425E0
2.267777771E1;-1.749668479E0;-5.632901192E0;5.546081543E0
2.269444370E1;-7.360202312E0;-9.189210892E0;-2.401154518E0
2.271110969E1;-1.086028767E1;-7.536949158E0;-9.129498482E0
2.272777568E1;-1.255443954E1;-3.007054329E0;-1.226160526E1
2.274444167E1;-1.181396675E1;-4.606142044E-1;-6.265702248E0
2.276110766E1;-9.442900658E0;2.316903591E0;-3.514494896E-1
2.277777365E1;-7.339031219E0;3.014570713E0;1.025603294E1
2.279443964E1;-7.462167740E0;5.230358124E0;1.354383087E1
2.281110562E1;-7.095256329E0;7.743900299E0;1.014914322E1
2.282777161E1;-6.900341034E0;8.970042229E0;4.530834198E0
2.284443760E1;-7.951472759E0;1.022145176E1;-1.170985937E0
2.286110359E1;-8.936752319E0;1.182511520E1;-4.914784431E-1
2.287776958E1;-9.295372963E0;1.338718414E1;2.694056273E0
2.289443557E1;-8.845956802E0;1.410232735E1;4.154003143E0
2.291110156E1;-7.524376392E0;1.398065948E1;4.450335503E0
2.292776755E1;-3.607184172E0;1.245913315E1;4.214798450E0
2.294443354E1;-2.971149087E-1;1.017101955E1;3.322785378E0
2.296109953E1;1.473950744E0;8.926340103E0;2.497612000E0
2.297776552E1;-1.425007224E0;4.382117748E0;1.878043532E0
2.299443151E1;-2.636107445E0;-1.312872887E0;-2.264552116E0
2.301109750E1;-2.930102587E0;-1.637058067E1;-7.667104721E0
2.302776349E1;9.365662336E-1;-5.274649429E1;-1.751877403E1
2.304442948E1;4.822036743E0;-5.807759094E1;-2.116398621E1
2.306109547E1;1.414807081E0;-2.289325714E1;3.272810459E0
2.307776146E1;-7.542417526E0;-1.950959206E0;2.414126205E1
2.309442745E1;-7.790770531E-1;-9.056100845E-1;1.430224514E1
2.311109344E1;6.291906834E-1;-4.090500832E0;4.388778687E0
2.312775943E1;-2.996751785E0;-3.371731758E0;5.522851944E-1
2.314442542E1;-1.723863602E0;-2.140183449E0;7.469463348E-2
2.316109141E1;1.124064922E0;2.477531433E-1;4.884121418E-1
2.317775740E1;4.116868973E0;2.875912666E0;7.807921171E-1
2.319442338E1;6.082596779E0;5.373174191E0;1.134305596E0
2.321108938E1;7.958038330E0;6.696159363E0;1.183701277E0
2.322775536E1;8.565257072E0;7.773998260E0;1.499333024E0
2.324442135E1;7.714528084E0;9.196210861E0;2.336964369E0
2.326108734E1;5.277829647E0;1.073787022E1;2.443943501E0
2.327775333E1;2.824780941E0;1.252583885E1;1.728478193E0
2.329441932E1;7.431311607E-1;1.532894993E1;-2.423027754E-1
2.331108531E1;-4.549056053E0;1.654665756E1;-7.488038063E0
2.332775130E1;-6.851150990E0;1.517185211E1;-6.147460938E0
2.334441729E1;-5.284954071E0;1.298098564E1;-2.062188387E-1
2.336108328E1;-4.527851105E0;8.270059586E0;1.092307663E1
2.337774927E1;1.278531313E0;1.954977036E0;5.577911377E0
2.339441526E1;3.415873289E0;-1.055473328E0;-1.434803963E0
2.341108125E1;6.024265289E0;-2.046735001E1;-2.483770609E0
2.342774724E1;9.730622292E0;-3.805592346E1;-6.159033298E0
2.344441323E1;7.759100914E0;-3.490554047E1;-6.436943054E0
2.346107922E1;6.016238689E0;-1.605904007E1;2.553950310E0
2.347774521E1;4.009998798E0;-7.752332687E0;4.292534828E0
2.349441120E1;7.070461512E-1;-6.019796371E0;2.207131863E0
2.351107719E1;-6.531651974E0;-8.897046089E0;-3.385566711E0
2.352774318E1;-1.294471550E1;-9.174122810E0;-8.662551880E0
2.354440917E1;-1.634563065E1;-5.288672447E0;-1.118363190E1
2.356107516E1;-1.520227337E1;-1.994525909E0;-7.429567337E0
2.357774115E1;-1.140160942E1;7.391729355E-1;-1.292701244E0
2.359440714E1;-5.961244106E0;1.240694046E0;1.108843613E1
2.361107312E1;-6.388061523E0;3.638147354E0;1.577016068E1
2.362773911E1;-7.300838470E0;6.862761021E0;1.227052307E1
2.364440510E1;-6.717074871E0;8.123121262E0;4.775551796E0
2.366107109E1;-6.969797611E0;8.837622643E0;-2.343737602E0
2.367773708E1;-8.199132919E0;1.053648281E1;-1.966818094E0
2.369440307E1;-9.322194099E0;1.284918976E1;1.888591170E0
2.371106906E1;-9.316808701E0;1.405109787E1;4.549620628E0
2.372773505E1;-8.686585426E0;1.433833599E1;5.896842003E0
2.374440104E1;-6.871875763E0;1.380704594E1;5.226057053E0
2.376106703E1;-2.371732235E0;1.109373665E1;2.668969154E0
2.377773302E1;1.083769351E-1;9.170511246E0;8.832548857E-1
2.379439901E1;-1.863358974E0;3.260238171E0;9.435448647E-1
2.381106500E1;-2.252260923E0;-2.182964325E0;-3.453444004E0
2.382773099E1;-1.571483731E0;-1.177625942E1;-6.714320183E0
2.384439698E1;8.437983990E-1;-3.680745697E1;-7.807870388E0
2.386106297E1;4.116475105E0;-5.640613556E1;-1.506936073E1
2.387772896E1;-1.439380646E-2;-3.230614471E1;-8.049045563E0
2.389439495E1;-9.802713394E0;-5.420499802E0;5.647358418E0
2.391106094E1;-9.610979080E0;2.218337059E0;1.780297661E1
2.392772693E1;-4.467740536E0;-6.422710419E-2;1.046683979E1
2.394439292E1;-1.422834396E-2;-4.308021545E0;2.051632881E0
2.396105891E1;1.952764988E0;-3.786236763E0;-2.620961666E0
2.397772490E1;4.411156654E0;-9.959897995E-1;-3.010687828E0
2.399439088E1;6.959855556E0;2.711281776E0;-1.548555970E0
2.401105688E1;9.615266800E0;6.185430050E0;7.603192329E-2
2.402772286E1;1.211314583E1;8.437237740E0;1.725631237E0
2.404438885E1;1.299676228E1;9.928421021E0;4.401741982E0
2.406105484E1;1.099403954E1;1.062667942E1;3.943356037E0
2.407772083E1;8.380478859E0;1.321704483E1;5.721854210E0
2.409438682E1;6.328602791E0;1.661247253E1;4.902841568E0
2.411105281E1;-1.225437164E0;1.799328613E1;-2.556442499E0
2.412771880E1;-7.689510345E0;1.600814056E1;-9.180514336E0
2.414438479E1;-8.352015495E0;1.291935921E1;-5.755773067E0
2.416105078E1;-6.106090069E0;9.407250404E0;2.527896881E0
2.417771677E1;-3.491592884E0;2.288464546E0;6.497130871E0
2.419438276E1;-5.629372597E-2;-3.714438438E0;1.389439464E0
2.421104875E1;5.009756088E0;-2.393892288E1;-2.956450701E0
2.422771474E1;7.037798405E0;-4.164060211E1;-8.540567398E0
2.424438073E1;5.586256981E0;-3.250426865E1;9.715852141E-1
2.426104672E1;8.770773888E0;-1.483840752E1;6.830151081E0
2.427771271E1;5.981923103E0;-7.237745285E0;6.034962654E0
2.429437870E1;1.882981658E0;-5.457511902E0;1.008486986E0
2.431104469E1;-4.271653175E0;-8.311168671E0;-6.871089458E0
2.432771068E1;-1.006118679E1;-8.639584541E0;-1.453039742E1
2.434437667E1;-1.311434650E1;-5.027400017E0;-1.318599510E1
2.436104266E1;-1.292333794E1;-1.233696938E0;-4.249003887E0
2.437770865E1;-1.056795311E1;1.006227493E0;-4.166631699E-1
2.439437464E1;-8.054574013E0;5.930013657E-1;9.471131325E0
2.441104063E1;-6.774542809E0;2.348676682E0;1.528923321E1
2.442770661E1;-7.071716785E0;5.247953892E0;1.288215637E1
2.444437260E1;-7.181773186E0;6.761863708E0;7.060834885E0
2.446103859E1;-7.526009560E0;8.048326492E0;-1.071047425E0
2.447770458E1;-8.688592911E0;9.717180252E0;-4.792340279E0
2.449437057E1;-9.990557671E0;1.251409912E1;-1.046811223E0
2.451103656E1;-1.056273079E1;1.494529152E1;3.246772766E0
2.452770255E1;-1.006846237E1;1.602253723E1;5.108588219E0
2.454436854E1;-8.347768784E0;1.608733177E1;6.195946217E0
2.456103453E1;-4.551096916E0;1.385942650E1;5.632943153E0
2.457770052E1;-2.552978039E0;1.135055351E1;3.673976898E0
2.459436651E1;-5.302763462E0;3.864939213E0;1.440974832E0
2.461103250E1;-3.837632179E0;-3.416652679E0;-6.413050652E0
2.462769849E1;-2.219488144E0;-1.934785843E1;-1.076505852E1
2.464436448E1;3.194656610E0;-4.869563293E1;-1.093332386E1
2.466103047E1;5.334791183E0;-5.312891388E1;-1.378764629E1
2.467769646E1;4.328146935E0;-2.548497391E1;-8.934606314E-1
2.469436245E1;-3.742459297E0;-6.171193123E0;9.859741211E0
2.471102844E1;-8.945298195E0;1.170982838E0;1.966019821E1
2.472769443E1;-1.868302345E0;-3.162014008E0;8.897361755E0
2.474436042E1;2.480302811E0;-6.311131477E0;8.843591213E-1
2.476102641E1;3.824987173E0;-5.464026451E0;-1.468141317E0
2.477769240E1;5.663612366E0;-1.535674095E0;-8.444380760E-1
2.479435839E1;7.649514675E0;2.446889877E0;1.759854555E-1
2.481102438E1;9.332532883E0;5.535088539E0;-1.190304756E-2
2.482769036E1;1.081586647E1;7.694266319E0;-4.550290108E-2
2.484435635E1;1.120455933E1;9.241429329E0;1.518078327E0
2.486102234E1;1.031849289E1;1.071820164E1;2.303835392E0
2.487768833E1;7.830129623E0;1.266459465E1;3.813315392E0
2.489435432E1;6.450657845E0;1.505038452E1;3.066472054E0
2.491102031E1;2.479642630E0;1.639244652E1;-1.383619666E0
2.492768630E1;-3.465481758E0;1.586371803E1;-5.519144058E0
2.494435229E1;-6.236796856E0;1.453389263E1;-3.550353289E0
2.496101828E1;-6.776249409E0;1.322149467E1;3.457445145E0
2.497768427E1;-5.610150337E0;6.063219547E0;8.601051331E0
2.499435026E1;-1.910210133E0;2.432389736E0;1.541302204E0
2.501101625E1;-3.766574860E-1;-8.742693901E0;-2.941505194E0
2.502768224E1;5.892254829E0;-3.317884445E1;-5.824411869E0
2.504434823E1;9.091478348E0;-4.886346436E1;-1.054481983E1
2.506101422E1;9.043853760E0;-2.776662064E1;2.787417173E0
2.507768021E1;5.477191925E0;-1.088734341E1;5.265552998E0
2.509434620E1;2.642594814E0;-5.204668999E0;2.510684013E0
2.511101219E1;-2.140360832E0;-7.538399696E0;-6.968089342E-1
2.512767818E1;-9.215212822E0;-9.353605270E0;-1.012372017E1
2.514434417E1;-1.797340202E1;-6.381863594E0;-1.586328888E1
2.516101016E1;-1.889345741E1;-1.905923843E0;-7.247919083E0
2.517767615E1;-1.339348507E1;1.375534058E0;2.281716824E0
2.519434214E1;-7.343338013E0;1.281259537E0;1.603252983E1
2.521100813E1;-8.253168106E0;4.562905312E0;1.784741211E1
2.522767411E1;-9.367778778E0;7.702378750E0;1.125634003E1
2.524434010E1;-9.443809509E0;9.015711784E0;2.096819162E0
2.526100609E1;-8.881969452E0;9.290431976E0;-4.611729622E0
2.527767208E1;-8.580447197E0;1.025640678E1;-1.839842081E0
2.529433807E1;-8.811195374E0;1.259857750E1;2.091235161E0
2.531100406E1;-8.519819260E0;1.390795326E1;3.662485600E0
2.532767005E1;-6.957201481E0;1.417401218E1;4.059192657E0
2.534433604E1;-3.650247335E0;1.297611237E1;4.310025215E0
2.536100203E1;-9.445133209E-1;1.120869064E1;3.747082949E0
2.537766802E1;-1.802653670E0;8.327577591E0;4.390594482E0
2.539433401E1;-4.909916878E0;8.521757126E-1;1.670828342E0
2.541100000E1;-3.288268566E0;-5.368014336E0;-3.773935795E0
2.542766599E1;-2.696569443E0;-2.537807846E1;-8.891197205E0
2.544433198E1;3.400567293E0;-5.036790085E1;-1.562787437E1
2.546099797E1;6.193259239E0;-4.447609329E1;-1.509027290E1
2.547766396E1;5.837798595E0;-2.178261948E1;-5.109685421E0
2.549432995E1;-3.934736252E-1;-4.557132721E0;3.099747658E0
2.551099594E1;-6.194977760E0;3.475687981E0;1.460369682E1
2.552766193E1;-3.941854954E0;-3.803873062E-1;1.425126934E1
2.554432792E1;1.556390285E0;-4.591212273E0;6.610998154E0
2.556099391E1;3.833117008E0;-3.322171211E0;1.602914810E0
2.557765990E1;5.410627365E0;-5.410299301E-1;1.256941199E0
2.559432588E1;6.901775360E0;2.542440891E0;2.007237196E0
2.561099188E1;7.998400211E0;5.268367767E0;1.912766933E0
2.562765786E1;8.840292931E0;7.051060677E0;1.795931101E0
2.564432385E1;8.839453697E0;8.786005020E0;3.381806612E0
2.566098984E1;7.845804691E0;1.116593170E1;5.434995174E0
2.567765583E1;5.353291512E0;1.238348007E1;4.986121178E0
2.569432182E1;2.526233912E0;1.425720596E1;2.612739563E0
2.571098781E1;-1.779150963E-1;1.632948303E1;-3.878355980E0
2.572765380E1;-6.760236263E0;1.582011795E1;-9.607012749E0
2.574431979E1;-7.428833008E0;1.434106350E1;-3.664190531E0
2.576098578E1;-4.309568405E0;1.030778217E1;2.626628637E0
2.577765177E1;-2.396099567E0;2.343483925E0;3.043060780E0
2.579431776E1;-1.212045431E0;-8.927886009E0;-1.465268731E0
2.581098375E1;5.129545212E0;-3.321025467E1;-4.734759808E0
2.582764974E1;1.000299835E1;-4.010919952E1;-5.731333733E0
2.584431573E1;1.212207222E1;-2.348012924E1;5.844001770E0
2.586098172E1;7.576560974E0;-1.076733398E1;6.586080074E0
2.587764771E1;4.286916256E0;-7.148818970E0;1.696366549E0
2.589431370E1;1.103047848E0;-7.713400841E0;-4.178364277E0
2.591097969E1;-3.890157223E0;-9.553866386E0;-9.747012138E0
2.592764568E1;-1.085616779E1;-8.917125702E0;-1.513638783E1
2.594431167E1;-1.493357277E1;-5.013610840E0;-1.099956322E1
2.596097766E1;-1.398686600E1;-3.582029343E-1;-3.941869736E0
2.597764365E1;-1.147877407E1;1.711610794E0;5.013809204E0
2.599430964E1;-9.296019554E0;2.466060638E0;1.642793465E1
2.601097562E1;-8.736933708E0;6.472840309E0;1.654630089E1
2.602764161E1;-8.351854324E0;8.654502869E0;9.028179169E0
2.604430760E1;-8.059772491E0;9.539007187E0;1.233619571E0
2.606097359E1;-7.412389755E0;9.860344887E0;-5.390511990E0
2.607763958E1;-6.574695110E0;1.075752068E1;-3.517989635E0
2.609430557E1;-6.426221371E0;1.281953335E1;1.207211256E0
2.611097156E1;-6.396518707E0;1.452902889E1;3.451384068E0
2.612763755E1;-6.335187435E0;1.512664795E1;3.354927063E0
2.614430354E1;-4.718035698E0;1.384400368E1;3.316132545E0
2.616096953E1;-3.019384623E0;1.170946407E1;3.636451006E0
2.617763552E1;-3.583351851E0;9.487335205E0;3.473277569E0
2.619430151E1;-6.222152710E0;3.540913105E0;2.736578941E0
2.621096750E1;-5.131613731E0;-3.441398621E0;-1.952700377E0
2.622763349E1;-4.958023071E0;-2.578166199E1;-7.951655388E0
2.624429948E1;3.242093801E0;-5.991566086E1;-1.863136292E1
2.626096547E1;8.507823944E0;-5.404351807E1;-1.238235188E1
2.627763146E1;4.732390881E0;-2.037645340E1;5.118538857E0
2.629429745E1;-5.623617172E0;-1.491666794E0;1.721562576E1
2.631096344E1;-9.590696335E0;2.070132256E0;1.822798920E1
2.632762943E1;-3.115263700E0;-4.674172401E0;6.249450684E0
2.634429542E1;-2.252058983E-1;-5.566318512E0;-5.791807175E-2
2.636096141E1;2.732271671E0;-4.147834778E0;-2.216057777E0
2.637762740E1;5.202601910E0;-7.155265808E-1;-1.381227493E0
2.639429338E1;7.320620060E0;2.976443768E0;-2.807207108E-1
2.641095938E1;9.350708008E0;5.732287884E0;7.107076645E-1
2.642762536E1;1.059797382E1;7.440970421E0;2.151160240E0
2.644429135E1;1.010569477E1;9.013462067E0;1.590097427E0
2.646095734E1;7.555144787E0;1.096433067E1;8.793617487E-1
2.647762333E1;5.723567009E0;1.390361977E1;4.198344946E-1
2.649428932E1;3.799541712E0;1.648673820E1;2.610056639E0
2.651095531E1;-7.642173767E-2;1.728698158E1;7.014584541E-2
2.652762130E1;-3.869461536E0;1.630234146E1;-3.053696156E0
2.654428729E1;-6.377572060E0;1.551064873E1;-6.992554665E-2
2.656095328E1;-8.051840782E0;1.412981701E1;6.425396919E0
2.657761927E1;-3.768662930E0;6.549272537E0;8.374936104E0
2.659428526E1;3.332554817E0;4.706722736E0;-5.353555679E0
2.661095125E1;3.535910130E0;2.772050858E0;-6.937408447E0
2.662761724E1;4.589728832E0;-1.299442577E1;-2.049731016E0
2.664428323E1;9.667070389E0;-3.270289993E1;-3.766628265E0
2.666094922E1;1.045714092E1;-4.564057159E1;-9.901413918E0
2.667761521E1;-5.136251450E-2;-3.675389099E1;-3.777173519E0
2.669428120E1;-1.702767849E0;-1.424825573E1;5.660202026E0
2.671094719E1;-1.834523797E0;-5.109734535E0;6.923064709E0
2.672761318E1;-5.376061440E0;-5.083264351E0;4.248319149E0
2.674427917E1;-1.132233620E1;-5.187055588E0;-1.334140420E0
2.676094516E1;-1.620737457E1;-2.414566040E0;-1.047868729E1
2.677761115E1;-1.720651054E1;2.846527100E-1;-8.757802010E0
2.679427714E1;-1.210496616E1;3.120401859E0;3.055648565E0
2.681094312E1;-9.375116348E0;4.051114082E0;1.368138218E1
2.682760911E1;-8.566620827E0;5.916679382E0;1.471616745E1
2.684427510E1;-7.901916981E0;7.031038761E0;8.246397972E0
2.686094109E1;-7.597134113E0;7.646778107E0;4.321396351E-2
2.687760708E1;-8.942128181E0;9.245643616E0;-4.168419361E0
2.689427307E1;-9.360550880E0;1.169941521E1;-1.023907304E0
2.691093906E1;-8.671142578E0;1.353696632E1;2.773443460E0
2.692760505E1;-8.237186432E0;1.451084900E1;5.333241463E0
2.694427104E1;-7.601559639E0;1.494528008E1;5.470970631E0
2.696093703E1;-4.861736298E0;1.367881680E1;3.665773392E0
2.697760302E1;-2.399691582E0;1.182457447E1;1.765097499E0
2.699426901E1;-3.996689796E0;6.612477303E0;2.137496233E0
2.701093500E1;-4.487482071E0;-4.848194122E-2;-1.538441539E0
2.702760099E1;-3.516292810E0;-8.398639679E0;-7.190192699E0
2.704426698E1;9.518742561E-1;-3.829612732E1;-1.427212429E1
2.706093297E1;5.349596024E0;-5.928110886E1;-1.991031647E1
2.707759896E1;7.209025383E0;-3.793658447E1;-8.022356987E0
2.709426495E1;-9.226975441E-1;-1.185088539E1;6.387120724E0
2.711093094E1;-1.050574684E1;9.859409332E-1;2.216452599E1
2.712759693E1;-3.773301601E0;-1.277594566E0;1.172609043E1
2.714426292E1;1.023350477E0;-4.973761559E0;3.070797443E0
2.716092891E1;2.197375536E0;-4.876432419E0;-1.337330341E0
2.717759490E1;4.188840866E0;-2.307980537E0;-8.361301422E-1
2.719426089E1;6.140535355E0;1.446067333E0;5.198686123E-1
2.721092688E1;7.746633530E0;4.696498871E0;7.184228897E-1
2.722759286E1;9.317070961E0;6.933228016E0;-1.131488085E-1
2.724425885E1;1.010006905E1;8.988213539E0;4.144491553E-1
2.726092484E1;9.174448967E0;1.097302437E1;1.183705449E0
2.727759083E1;6.804211617E0;1.201243877E1;-1.318762302E-1
2.729425682E1;5.170767784E0;1.402382851E1;8.195800781E-1
2.731092281E1;3.266039371E0;1.669415474E1;5.505594254E0
2.732758880E1;-2.639214516E0;1.760923767E1;-1.694549561E0
2.734425479E1;-6.365203857E0;1.567695236E1;-6.009724617E0
2.736092078E1;-7.653785706E0;1.314739037E1;-2.535412312E0
2.737758677E1;-6.494735241E0;8.654867172E0;4.586201668E0
2.739425276E1;-1.215584993E0;3.616371155E0;2.417259693E0
2.741091875E1;5.114121437E-1;9.692988396E-1;-3.631236553E0
2.742758474E1;4.623383045E0;-1.731594467E1;-4.557291031E0
2.744425073E1;9.394716263E0;-3.560158539E1;-8.062446594E0
2.746091672E1;8.911993027E0;-4.261079025E1;-8.291563034E0
2.747758271E1;7.415297508E0;-2.505181694E1;4.708728313E0
2.749424870E1;5.331505775E0;-1.123267365E1;6.379950523E0
2.751091469E1;1.713191271E0;-6.474952698E0;3.251804352E0
2.752758068E1;-5.225249290E0;-8.242053032E0;-5.759753227E0
2.754424667E1;-1.248336792E1;-7.731816292E0;-1.079146004E1
2.756091266E1;-1.609148598E1;-3.303862572E0;-1.159319878E1
2.757757865E1;-1.439933968E1;-4.894094467E-1;-6.098536968E0
2.759424464E1;-1.148502159E1;1.800438881E0;2.070105553E0
2.761091063E1;-9.810730934E0;2.722364426E0;1.276717854E1
2.762757661E1;-1.030550575E1;6.219713211E0;1.551292038E1
2.764424260E1;-9.624927521E0;8.549845695E0;1.050802135E1
2.766090859E1;-8.370434761E0;8.833968163E0;2.920524597E0
2.767757458E1;-7.903929234E0;9.329111099E0;-4.458558083E0
2.769424057E1;-8.010058403E0;1.055958843E1;-3.329564333E0
2.771090656E1;-8.595935822E0;1.312447262E1;1.564933062E0
2.772757255E1;-8.705926895E0;1.514904594E1;4.158363819E0
2.774423854E1;-7.975781441E0;1.583989334E1;4.439261913E0
2.776090453E1;-5.042387962E0;1.403399086E1;3.837681770E0
2.777757052E1;-2.430461168E0;1.120133495E1;2.077469826E0
2.779423651E1;-2.169678450E0;9.808651924E0;1.218899012E0
2.781090250E1;-5.336833477E0;3.101337433E0;6.054120064E-1
2.782756849E1;-4.066836834E0;-3.711277008E0;-3.557592392E0
2.784423448E1;-3.125600815E0;-2.539914322E1;-9.769374847E0
2.786090047E1;2.704149961E0;-5.671309662E1;-1.808013344E1
2.787756646E1;5.162771225E0;-4.984325790E1;-1.464609146E1
2.789423245E1;4.782824516E-1;-1.861775780E1;6.617171288E0
2.791089844E1;-8.768129349E0;-2.554319382E0;2.522963333E1
2.792756443E1;-3.256786346E0;-3.142731667E0;1.285690784E1
2.794423042E1;-1.032412529E0;-5.851325989E0;3.832384825E0
2.796089641E1;1.432480812E-1;-5.938730240E0;-5.793712139E-1
2.797756240E1;2.467262268E0;-4.091639519E0;-1.532692432E0
2.799422839E1;5.220543861E0;-1.173072815E0;-1.640993476E0
2.801089438E1;7.824281693E0;2.032078266E0;-1.833910465E0
2.802756036E1;1.014304638E1;5.481614113E0;-1.384852886E0
2.804422635E1;1.126918030E1;7.604833603E0;-1.068698883E0
2.806089234E1;1.128281593E1;9.306179047E0;-1.049574614E-1
2.807755833E1;1.047431755E1;1.085678387E1;1.753514290E0
2.809422432E1;8.731987000E0;1.349862862E1;4.900993347E0
2.811089031E1;6.406085014E0;1.647675896E1;6.810316563E0
2.812755630E1;1.267931938E0;1.873354340E1;1.998410344E0
2.814422229E1;-4.186887741E0;1.806807709E1;-3.159073591E-1
2.816088828E1;-9.510084152E0;1.581147766E1;1.372291446E0
2.817755427E1;-7.449147224E0;9.717113495E0;3.498171568E0
2.819422026E1;8.765773773E-1;3.306918144E0;3.119520187E0
2.821088625E1;3.293671846E0;1.766307831E0;-3.785297871E0
2.822755224E1;4.244132042E0;-2.173989868E1;-4.997334480E-1
2.824421823E1;1.061969948E1;-4.426582336E1;-6.566208839E0
2.826088422E1;8.747986794E0;-3.516536713E1;-1.148238754E1
2.827755021E1;4.260516644E0;-1.755931854E1;-1.136515498E0
2.829421620E1;1.440579891E0;-9.524218559E0;6.562469482E0
2.831088219E1;-1.382336140E0;-5.866332054E0;6.175285816E0
2.832754818E1;-6.660909653E0;-8.117268562E0;1.699966192E0
2.834421417E1;-9.944877625E0;-9.548053741E0;-3.119068623E0
2.836088016E1;-9.276527405E0;-7.041376114E0;-1.141063404E1
2.837754615E1;-9.900269508E0;-3.581102371E0;-1.558226967E1
2.839421214E1;-1.008479214E1;-1.398525238E-1;-6.343621254E0
2.841087813E1;-7.945013523E0;3.911958218E0;3.144311428E0
2.842754411E1;-5.431120872E0;5.030004025E0;1.237199211E1
2.844421010E1;-6.953475475E0;6.152059078E0;1.354261684E1
2.846087609E1;-8.397077560E0;7.795554638E0;8.075080872E0
2.847754208E1;-9.392786980E0;8.891391754E0;1.680219650E0
2.849420807E1;-1.113493156E1;1.055683899E1;-1.571920753E0
2.851087406E1;-1.208058167E1;1.223587990E1;-2.409017086E-1
2.852754005E1;-1.145676327E1;1.311082458E1;1.609774232E0
2.854420604E1;-1.051553822E1;1.383204937E1;1.696227193E0
2.856087203E1;-8.815501213E0;1.423272419E1;1.515017033E0
2.857753802E1;-5.694818974E0;1.389358711E1;2.199682474E0
2.859420401E1;-1.948832870E0;1.189197826E1;2.145492554E0
2.861087000E1;-8.609837890E-1;1.023174953E1;1.573471546E0
2.862753599E1;-3.963214397E0;3.564036369E0;5.766927004E-1
2.864420198E1;-3.361712456E0;-3.854655266E0;-4.527430534E0
2.866086797E1;-3.352030754E0;-3.116569901E1;-1.358965111E1
2.867753396E1;-7.628440857E-3;-6.488668823E1;-2.430188942E1
2.869419995E1;3.007029772E0;-4.355648041E1;-1.068850517E1
2.871086594E1;-6.372531414E0;-1.072537708E1;1.465803146E1
2.872753193E1;-1.163347435E1;-5.521965027E-2;3.372916794E1
2.874419792E1;-9.761238098E-2;-6.695974350E0;8.479811668E0
2.876086391E1;-6.061186790E-1;-8.412714958E0;-2.164456844E-1
2.877752990E1;8.712720871E-2;-6.989962578E0;-3.069862843E0
2.879419588E1;2.307316780E0;-3.203063011E0;-3.028087139E0
2.881086188E1;5.141485691E0;-1.157236099E-1;-2.983940840E0
2.882752786E1;7.536550522E0;2.900484085E0;-3.108988762E0
2.884419385E1;9.253490448E0;5.978981495E0;-2.059409142E0
2.886085984E1;1.028637791E1;7.609262466E0;-2.683566809E-1
2.887752583E1;1.031957912E1;8.997850418E0;1.886584997E0
2.889419182E1;9.606653214E0;1.154541206E1;5.011696815E0
2.891085781E1;9.133708000E0;1.425089455E1;8.583159447E0
2.892752380E1;6.226190567E0;1.610005951E1;4.568883896E0
2.894418979E1;-9.188742638E-1;1.692314529E1;-1.705675125E0
2.896085578E1;-7.053425789E0;1.723316765E1;-6.270753860E0
2.897752177E1;-9.266757965E0;1.499657822E1;-4.374748230E0
2.899418776E1;-7.344375610E0;1.210203552E1;4.418372154E0
2.901085375E1;-2.139862537E0;6.120694637E0;7.753915787E0
2.902751974E1;2.952692270E0;5.016227722E0;-2.175051928E0
2.904418573E1;3.500922918E0;-3.180607796E0;-5.068342209E0
2.906085172E1;7.305952072E0;-3.035342407E1;-3.491831779E0
2.907751771E1;1.153089905E1;-5.010725021E1;-6.632162094E0
2.909418370E1;5.054628849E0;-3.444804001E1;-3.392683029E0
2.911084969E1;7.529807091E-2;-1.238039494E1;7.433891773E0
2.912751568E1;-6.592893600E-1;-4.846013069E0;6.928476334E0
2.914418167E1;-3.242480278E0;-3.153446198E0;2.868773937E-1
2.916084766E1;-8.810812950E0;-5.879503250E0;-7.996211052E0
2.917751365E1;-1.073270416E1;-6.340853691E0;-1.244965649E1
2.919417964E1;-9.801574707E0;-4.760164261E0;-1.145118904E1
2.921084562E1;-1.107500744E1;-2.172085762E0;-4.932971001E0
2.922751161E1;-1.176446533E1;8.817710876E-1;5.838870049E0
2.924417760E1;-8.839080811E0;2.856560707E0;1.683425522E1
2.926084359E1;-7.828469276E0;5.735836983E0;1.647796822E1
2.927750958E1;-7.829935074E0;7.193204403E0;9.195781708E0
2.929417557E1;-8.989267349E0;7.718298435E0;-1.766245365E-1
2.931084156E1;-1.066033745E1;9.333796501E0;-6.286417007E0
2.932750755E1;-1.155110168E1;1.181735420E1;-4.141248703E0
2.934417354E1;-1.077346420E1;1.437778664E1;1.047680140E0
2.936083953E1;-8.381180763E0;1.530136395E1;4.592526913E0
2.937750552E1;-5.997619152E0;1.513753414E1;5.539453983E0
2.939417151E1;-2.984640598E0;1.393084621E1;4.267995834E0
2.941083750E1;-1.185999513E0;1.168558693E1;2.100554943E0
2.942750349E1;-2.078688860E0;8.122521400E0;2.169901609E0
2.944416948E1;-4.819405556E0;1.066050529E0;3.881333470E-1
2.946083547E1;-3.296197891E0;-6.122598648E0;-4.789194107E0
2.947750146E1;-1.612401962E0;-3.038510704E1;-9.027647972E0
2.949416745E1;4.666814804E0;-6.199824142E1;-1.977022362E1
2.951083344E1;8.653152466E0;-4.593464661E1;-8.878512383E0
2.952749943E1;1.431240559E0;-1.363156796E1;5.660973549E0
2.954416542E1;-8.530397415E0;1.626794338E0;1.820225906E1
2.956083141E1;-6.539251328E0;-4.597826004E-1;1.301747036E1
2.957749740E1;-2.601463318E0;-4.820564270E0;4.904456139E0
2.959416338E1;-3.572101593E-1;-4.804163933E0;7.816169262E-1
2.961082938E1;2.550165415E0;-2.853941917E0;1.691579819E-2
2.962749536E1;5.195783138E0;-2.630805969E-2;5.731284618E-2
2.964416135E1;7.181107521E0;2.840864182E0;-6.356352568E-1
2.966082734E1;8.383705139E0;5.561578751E0;-1.543754935E0
2.967749333E1;9.167621613E0;7.575719833E0;-1.680383801E0
2.969415932E1;8.718009949E0;9.890641212E0;-5.594033003E-1
2.971082531E1;7.674310207E0;1.098155403E1;-1.694764972E0
2.972749130E1;5.655472755E0;1.366751480E1;-4.801508188E-1
2.974415729E1;2.522883177E0;1.732094955E1;2.790895700E0
2.976082328E1;-2.813766003E0;1.872043228E1;-4.724871159E0
2.977748927E1;-7.212252617E0;1.772999954E1;-3.805791616E0
2.979415526E1;-1.211655045E1;1.731398010E1;7.506947994E0
2.981082125E1;-1.272959518E1;1.102090645E1;1.959197617E1
2.982748724E1;3.592255116E0;9.897580147E-1;3.413494349E0
2.984415323E1;5.313554764E0;2.659995079E0;-9.005764961E0
2.986081922E1;7.016520500E0;-6.289562225E0;-1.101663589E1
2.987748521E1;1.087409592E1;-2.893927956E1;-6.350953579E0
2.989415120E1;1.361385632E1;-4.333313751E1;-1.237595749E1
2.991081719E1;3.980689764E0;-3.363358307E1;-1.105268669E1
2.992748318E1;4.331915379E-1;-1.784179878E1;4.179402590E-1
2.994414917E1;8.451616764E-1;-1.001563454E1;8.849449158E0
2.996081516E1;-2.685966492E0;-8.250778198E0;1.182004642E1
2.997748115E1;-8.626364708E0;-9.369819641E0;8.236356735E0
2.999414714E1;-1.460072327E1;-6.061794281E0;-1.706669331E0
3.001081313E1;-1.976959610E1;-5.134906769E-1;-1.259781551E1
3.002747911E1;-1.778029060E1;2.505363464E0;-7.774312496E0
3.004414510E1;-9.718669891E0;3.834656715E0;6.098182678E0
3.006081109E1;-6.864836693E0;4.665182114E0;1.256077957E1
3.007747708E1;-6.070671082E0;6.719399929E0;1.083324718E1
3.009414307E1;-5.065571308E0;7.769070625E0;5.147220135E0
3.011080906E1;-4.248814106E0;8.517302513E0;-9.847280979E-1
3.012747505E1;-4.859341145E0;9.845098495E0;-3.156658649E0
3.014414104E1;-6.117166519E0;1.196467400E1;-1.078098774E0
3.016080703E1;-6.626598835E0;1.369336510E1;5.835075378E-1
3.017747302E1;-7.081302643E0;1.491390038E1;1.576003909E0
3.019413901E1;-6.374865055E0;1.516803169E1;3.119154453E0
3.021080500E1;-4.623737812E0;1.473181152E1;4.696452141E0
3.022747099E1;-3.529602766E0;1.325840473E1;5.432255745E0
3.024413698E1;-6.771794319E0;6.782591343E0;5.689921379E0
3.026080297E1;-5.958340168E0;2.353096008E-2;3.446397781E-1
3.027746896E1;-6.898323059E0;-1.341234207E1;-6.976482391E0
3.029413495E1;-2.120011091E0;-4.881436920E1;-1.766628838E1
3.031080094E1;3.112019777E0;-5.660500336E1;-2.382956505E1
3.032746693E1;7.891502857E0;-3.141466904E1;-2.373847246E0
3.034413292E1;3.376137495E0;-9.421966553E0;1.177760410E1
3.036079891E1;-9.058722496E0;1.321736336E0;2.145629883E1
3.037746490E1;-6.120899200E0;-2.451178551E0;1.003738689E1
3.039413089E1;-2.479782581E0;-5.214506149E0;2.423464060E0
3.041079688E1;2.598137856E-1;-4.231524467E0;-1.161823988E0
3.042746286E1;3.304389477E0;-2.050941467E0;-5.293053389E-1
3.044412885E1;5.777422905E0;1.312904358E0;1.458846092E0
3.046079484E1;7.625321388E0;4.008924484E0;1.401023388E0
3.047746083E1;9.164947510E0;6.395543575E0;1.198365331E0
3.049412682E1;9.656125069E0;8.409555435E0;1.888489723E0
3.051079281E1;7.937312126E0;1.040062904E1;2.455563307E0
3.052745880E1;5.146928787E0;1.175567245E1;2.196147919E0
3.054412479E1;2.268102646E0;1.384443188E1;1.434829235E-1
3.056079078E1;-6.338886023E-1;1.613042641E1;-1.740724206E0
3.057745677E1;-6.060211182E0;1.721975708E1;-6.771840572E0
3.059412276E1;-8.401698112E0;1.567733955E1;-5.426846504E0
3.061078875E1;-7.295964241E0;1.326000690E1;2.551177263E0
3.062745474E1;-7.794916153E0;6.405703068E0;1.908995819E1
3.064412073E1;3.754485846E0;2.189076424E0;2.711313248E0
3.066078672E1;4.810739517E0;2.102864265E0;-4.992496490E0
3.067745271E1;6.552537918E0;-8.728950500E0;-7.881650925E0
3.069411870E1;1.014257526E1;-2.914072037E1;-4.855950832E0
3.071078469E1;1.127288437E1;-4.166498184E1;-9.571950912E0
3.072745068E1;5.853789330E0;-2.947171021E1;-6.041836739E0
3.074411667E1;4.750616074E0;-1.208570766E1;3.960996151E0
3.076078266E1;5.504570484E0;-7.330183983E0;8.675857544E0
3.077744865E1;1.509639621E0;-9.571488380E0;7.415841579E0
3.079411464E1;-6.415646076E0;-1.138425636E1;3.979685068E0
3.081078063E1;-1.230918789E1;-7.647242546E0;-8.328746796E0
3.082744661E1;-1.558391285E1;-4.023765564E0;-1.757002258E1
3.084411260E1;-1.493655014E1;-1.094479561E0;-1.303849888E1
3.086077859E1;-9.713637352E0;1.855821133E0;9.905719757E-2
3.087744458E1;-9.118933678E0;3.426997185E0;1.446322155E1
3.089411057E1;-1.151443100E1;7.470026970E0;1.967395401E1
3.091077656E1;-1.179966831E1;1.092752361E1;1.298766708E1
3.092744255E1;-1.367523289E1;1.245168877E1;3.559679031E0
3.094410854E1;-1.502702332E1;1.339860153E1;-5.632501602E0
3.096077453E1;-1.333791924E1;1.353277969E1;-3.934412956E0
3.097744052E1;-1.107928658E1;1.428413391E1;1.305669188E0
3.099410651E1;-9.201050758E0;1.490773106E1;3.156374454E0
3.101077250E1;-5.980262756E0;1.441147423E1;4.352325439E0
3.102743849E1;-2.896362066E0;1.219502449E1;4.597826958E0
3.104410448E1;-1.708884120E0;9.134523392E0;4.812907219E0
3.106077047E1;-5.147041321E0;1.325205803E0;2.610195637E0
3.107743646E1;-3.865512609E0;-4.116130829E0;-3.589241028E0
3.109410245E1;-2.664989471E0;-1.817943192E1;-8.779517174E0
3.111076844E1;4.644488335E0;-5.004907608E1;-1.491848373E1
3.112743443E1;4.485884666E0;-5.152841187E1;-1.724211693E1
3.114410042E1;3.571168184E0;-2.254220581E1;-3.184687614E0
3.116076641E1;-2.235006332E0;-6.349408150E0;8.455951691E0
3.117743240E1;-7.636737347E0;-7.208557129E-1;1.769763184E1
3.119409838E1;-1.671959400E0;-5.791289330E0;8.502724648E0
3.121076438E1;-9.390830994E-3;-5.911077499E0;2.246315479E0
3.122743036E1;2.241807222E0;-3.784207344E0;2.785253525E-1
3.124409635E1;4.286518574E0;-7.434158325E-1;1.094327688E0
3.126076234E1;6.090420723E0;2.036171436E0;1.229355097E0
3.127742833E1;7.250528812E0;4.443238258E0;6.304059029E-1
3.129409432E1;8.605394363E0;6.599720001E0;2.799630165E-1
3.131076031E1;9.176239014E0;8.679809570E0;1.694294214E0
3.132742630E1;7.832228661E0;1.013361931E1;2.402208328E0
3.134409229E1;4.900998116E0;1.137960052E1;2.161520481E0
3.136075828E1;2.128858566E0;1.342312431E1;1.919754505E0
3.137742427E1;-9.503555298E-2;1.627321053E1;2.587103248E-1
3.139409026E1;-5.020455360E0;1.810291100E1;-6.165743351E0
3.141075625E1;-8.023126602E0;1.637909317E1;-7.410694122E0
3.142742224E1;-6.762020588E0;1.331989861E1;-8.607331514E-1
3.144408823E1;-4.662418842E0;8.248452187E0;9.134389877E0
3.146075422E1;9.371438026E-1;2.848148346E0;4.861147881E0
3.147742021E1;1.795703411E0;-4.109106064E-1;-1.682235241E0
3.149408620E1;4.915421486E0;-2.266104507E1;-2.508621216E0
3.151075219E1;9.396353722E0;-4.191603088E1;-9.806911469E0
3.152741818E1;6.291927338E0;-3.620854187E1;-1.129335308E1
3.154408417E1;7.807738304E0;-1.943026924E1;4.057618618E0
3.156075016E1;5.013226509E0;-7.791487694E0;6.037550449E0
3.157741615E1;1.272240877E0;-4.354212761E0;5.326345444E0
3.159408214E1;-4.814536572E0;-8.119138718E0;5.801558495E-1
3.161074812E1;-1.105455780E1;-1.094492245E1;-9.491326332E0
3.162741411E1;-1.443797112E1;-6.689642906E0;-1.461224937E1
3.164408010E1;-1.395572662E1;-2.731540680E0;-1.094304943E1
3.166074609E1;-1.119764423E1;1.083925247E0;-4.696425438E0
3.167741208E1;-9.105421066E0;2.201468945E0;1.034156609E1
3.169407807E1;-9.072832108E0;4.938214779E0;1.765411377E1
3.171074406E1;-7.985414982E0;7.913855076E0;1.399119568E1
3.172741005E1;-6.381175995E0;8.035438538E0;6.450857639E0
3.174407604E1;-6.364677906E0;8.223255157E0;-1.790177822E0
3.176074203E1;-7.797454357E0;1.000478649E1;-4.513512611E0
3.177740802E1;-1.008211422E1;1.277519798E1;-3.040271997E-1
3.179407401E1;-1.038513756E1;1.429154587E1;2.316056728E0
3.181074000E1;-9.312555313E0;1.481901932E1;2.808531046E0
3.182740599E1;-7.741634369E0;1.517433357E1;3.821970701E0
3.184407198E1;-4.396125317E0;1.339220619E1;4.768611908E0
3.186073797E1;-1.397480488E0;1.075810337E1;3.056649208E0
3.187740396E1;-2.658417225E-1;8.891664505E0;1.550178647E0
3.189406995E1;-2.737278461E0;3.353408813E0;-1.401380062E0
3.191073594E1;-1.730313540E0;-2.430478096E0;-5.349091530E0
3.192740193E1;-1.055879593E0;-2.830081940E1;-1.322549629E1
3.194406792E1;1.561082006E0;-5.879312897E1;-2.134466743E1
3.196073391E1;6.472350121E0;-4.395365143E1;-1.936835289E1
3.197739990E1;-9.009566307E-1;-1.554670334E1;3.897207022E0
3.199406588E1;-1.112059116E1;-1.703562737E0;2.775521469E1
3.201073188E1;-6.110457420E0;-2.775492668E0;1.761784172E1
3.202739786E1;-5.199425697E0;-5.979065895E0;7.697383881E0
3.204406385E1;-3.440744877E0;-6.781400681E0;1.178174257E0
3.206072984E1;2.736473083E-2;-5.659635544E0;-3.891801119E0
3.207739583E1;3.471171618E0;-1.978732109E0;-4.292917252E0
3.209406182E1;6.963906765E0;1.725285053E0;-3.044454098E0
3.211072781E1;9.877321243E0;5.024660587E0;-8.064439297E-1
3.212739380E1;1.206613064E1;6.773585320E0;1.557563782E0
3.214405979E1;1.200301552E1;8.080618858E0;3.018116951E0
3.216072578E1;9.408111572E0;9.606243134E0;2.732010841E0
3.217739177E1;5.963871956E0;1.157634640E1;3.080630779E0
3.219405776E1;2.482760668E0;1.402277279E1;2.917519569E0
3.221072375E1;-6.376836300E-1;1.663029480E1;-5.767285824E-2
3.222738974E1;-6.418644428E0;1.734887886E1;-6.150043488E0
3.224405573E1;-8.904814720E0;1.513048649E1;-6.899788857E0
3.226072172E1;-6.734793663E0;1.207588577E1;-1.288860083E0
3.227738771E1;-3.915795326E0;8.645956993E0;7.074571609E0
3.229405370E1;5.558328629E-1;2.504938602E0;4.249208927E0
3.231071969E1;1.999694228E0;-8.131122589E-1;-1.896049738E0
3.232738568E1;3.268929243E0;-2.090030670E1;-4.018735409E0
3.234405167E1;4.441343784E0;-4.138666534E1;-9.505570412E0
3.236071766E1;8.558841705E0;-3.768700790E1;4.833928347E-1
3.237738365E1;1.024099159E1;-1.554008579E1;7.649395466E0
3.239404964E1;6.629036903E0;-5.705231667E0;6.168395042E0
3.241071562E1;3.369773626E0;-3.165538788E0;1.669847965E0
3.242738161E1;-2.178956509E0;-7.235961914E0;-5.552160263E0
3.244404760E1;-8.867934227E0;-9.962710381E0;-1.506189728E1
3.246071359E1;-1.400319672E1;-6.938904762E0;-1.673110008E1
3.247737958E1;-1.347645855E1;-4.153847694E0;-7.067039490E0
3.249404557E1;-1.207331848E1;-1.150660515E0;-4.033995628E0
3.251071156E1;-1.063794136E1;-9.088230133E-1;1.054038334E1
3.252737755E1;-8.155885696E0;2.742949486E0;1.864710617E1
3.254404354E1;-7.663342476E0;6.830842018E0;1.517100048E1
3.256070953E1;-8.111690521E0;8.156835556E0;6.413210392E0
3.257737552E1;-8.738225937E0;8.531186104E0;-4.857156754E0
3.259404151E1;-9.734313965E0;1.004172516E1;-7.201565742E0
3.261070750E1;-1.082733345E1;1.301978207E1;-7.506427765E-1
3.262737349E1;-1.137272930E1;1.557475090E1;3.574349403E0
3.264403948E1;-1.048215199E1;1.672559547E1;4.709889889E0
3.266070547E1;-7.917036533E0;1.635497093E1;4.475371361E0
3.267737146E1;-4.009246349E0;1.340799713E1;4.290773392E0
3.269403745E1;-2.086247921E0;1.085651398E1;2.509910583E0
3.271070344E1;-7.852712870E-1;9.831093788E0;1.274887204E0
3.272736943E1;-3.801371813E0;4.514494896E0;8.203637600E-2
3.274403542E1;-3.600897312E0;-2.848388672E0;-4.267485619E0
3.276070141E1;-3.398001909E0;-3.008173561E1;-1.222566128E1
3.277736740E1;1.978409290E0;-6.646961212E1;-2.291279411E1
3.279403338E1;2.285408258E0;-5.112029266E1;-1.714928436E1
3.281069938E1;-2.550828457E0;-1.631838799E1;7.437800407E0
3.282736536E1;-8.982164383E0;-4.162130356E-1;3.216306686E1
3.284403135E1;-1.468524933E0;-2.257163048E0;1.351502609E1
3.286069734E1;-3.305101395E-2;-5.555196762E0;5.294290543E0
3.287736333E1;1.996974945E-1;-5.437674522E0;1.945528507E0
3.289402932E1;2.098871231E0;-3.313428879E0;6.409108639E-1
3.291069531E1;4.674882889E0;-1.895303726E-1;4.707496166E-1
3.292736130E1;6.784884453E0;2.636116028E0;-7.585923672E-1
3.294402729E1;8.645538330E0;5.355943680E0;-1.415928721E0
3.296069328E1;9.978302002E0;7.023619652E0;-5.052665472E-1
3.297735927E1;1.004093266E1;8.313690186E0;8.743068576E-1
3.299402526E1;8.292571068E0;9.912281990E0;1.524115562E0
3.301069125E1;5.183248043E0;1.193386841E1;1.427197218E0
3.302735724E1;1.890120268E0;1.535546112E1;1.742537022E-1
3.304402323E1;-2.721089363E0;1.773649597E1;-2.396059036E0
3.306068922E1;-6.915119648E0;1.728697968E1;-4.893966675E0
3.307735521E1;-7.468216419E0;1.490672684E1;-8.850647211E-1
3.309402120E1;-7.460512161E0;1.133496284E1;6.668782234E0
3.311068719E1;-4.420682430E0;3.705258369E0;1.234851933E1
3.312735318E1;2.395415306E0;2.859255791E0;-9.728826284E-1
3.314401917E1;3.343028307E0;-5.867066383E0;-4.397039890E0
3.316068516E1;6.683406353E0;-2.798581505E1;-5.262211323E0
3.317735115E1;1.053614616E1;-4.097900391E1;-1.111663914E1
3.319401714E1;7.983042717E0;-3.143547058E1;-2.573228121E0
3.321068312E1;7.516929626E0;-1.380068970E1;5.715875626E0
3.322734911E1;5.260815620E0;-5.846481323E0;5.539244652E0
3.324401510E1;1.261379242E0;-7.102515221E0;3.136778355E0
3.326068109E1;-6.738247395E0;-1.264393520E1;-3.612520218E0
3.327734708E1;-1.314195061E1;-1.066068172E1;-1.207558632E1
3.329401307E1;-1.547799397E1;-5.205320358E0;-1.642255783E1
3.331067906E1;-1.494836521E1;-9.853010178E-1;-1.008068943E1
3.332734505E1;-1.126779079E1;1.938220024E0;1.813559532E0
3.334401104E1;-8.939848900E0;2.068286896E0;1.523397350E1
3.336067703E1;-8.642956734E0;5.196727753E0;1.915319443E1
3.337734302E1;-8.905128479E0;8.010725975E0;1.193810177E1
3.339400901E1;-9.762773514E0;8.849963188E0;2.439315796E0
3.341067500E1;-1.145575619E1;1.034314823E1;-4.796774387E0
3.342734099E1;-1.254145241E1;1.273851395E1;-1.256677747E0
3.344400698E1;-1.277492237E1;1.490354347E1;2.488955021E0
3.346067297E1;-1.132490063E1;1.560917664E1;3.213368416E0
3.347733896E1;-7.232142448E0;1.452088261E1;3.189249277E0
3.349400495E1;-2.167385101E0;1.207557487E1;3.431369781E0
3.351067094E1;3.660602570E-1;1.013622284E1;2.563705444E0
3.352733693E1;2.057199478E0;8.865971565E0;1.768697977E0
3.354400292E1;-9.857112169E-1;4.112482071E0;-2.962574363E-1
3.356066891E1;-2.154239178E0;-4.673700333E-1;-4.113530636E0
3.357733490E1;-3.437958241E0;-1.220292568E1;-8.868270874E0
3.359400088E1;-3.238354445E0;-4.545278168E1;-1.399448204E1
3.361066688E1;-5.151433945E-1;-5.801629257E1;-2.260678101E1
3.362733286E1;-1.361060858E0;-2.470690536E1;-3.179429293E0
3.364399885E1;-4.918628693E0;-5.841020584E0;1.855085945E1
3.366066484E1;2.290813923E-1;-1.418300629E0;1.732257652E1
3.367733083E1;1.466587305E0;-5.358386993E0;4.381324768E0
3.369399682E1;7.494716644E-1;-6.132841110E0;-8.151981831E-1
3.371066281E1;2.970069647E0;-3.908115387E0;-1.902722955E0
3.372732880E1;5.196809769E0;-2.893304825E-1;-6.363782883E-1
3.374399479E1;7.331325531E0;2.706806660E0;-1.709787846E-1
3.376066078E1;8.492762566E0;5.408451557E0;-3.681651354E-1
3.377732677E1;9.470264435E0;7.010268211E0;1.283156872E-2
3.379399276E1;1.002691841E1;8.393317223E0;1.765734076E0
3.381065875E1;9.546934128E0;1.003960705E1;4.846995354E0
3.382732474E1;6.873828888E0;1.196421719E1;6.343417168E0
3.384399073E1;2.933341980E0;1.465465736E1;5.731410503E0
3.386065672E1;-1.369209766E0;1.683744049E1;1.693432331E0
3.387732271E1;-6.563753605E0;1.738846779E1;-6.202609062E0
3.389398870E1;-9.202938080E0;1.551512527E1;-9.144556999E0
3.391065469E1;-6.183820724E0;1.120131302E1;-4.451699734E0
3.392732068E1;-1.211670399E0;7.595159531E0;1.174377203E0
3.394398667E1;1.171630263E0;2.109259605E0;3.487159252E0
3.396065266E1;1.164552927E0;-6.651176453E0;9.543232918E-1
3.397731865E1;-9.274454117E-1;-3.501065063E1;-4.363129616E0
3.399398464E1;2.664330244E0;-4.394119263E1;1.330327272E0
3.401065063E1;1.229884338E1;-2.178609848E1;9.916101456E0
3.402731661E1;1.013595676E1;-8.212070465E0;6.542932510E0
3.404398260E1;5.916656494E0;-4.366619110E0;1.132285833E0
3.406064859E1;1.789449096E0;-4.469147682E0;-5.466835976E0
3.407731458E1;-1.612824202E0;-7.092590332E0;-9.146511078E0
3.409398057E1;-5.114891529E0;-1.026150036E1;-1.537456226E1
3.411064656E1;-8.303629875E0;-1.055568027E1;-1.700185394E1
3.412731255E1;-1.063696575E1;-7.172328949E0;-8.295661926E0
3.414397854E1;-1.107749557E1;-3.324042320E0;-5.573262691E0
3.416064453E1;-1.218459511E1;-1.601022720E0;6.644435883E0
3.417731052E1;-1.089791298E1;1.286887169E0;2.091705894E1
3.419397651E1;-1.006599331E1;6.371309757E0;1.937067413E1
3.421064250E1;-9.112915039E0;8.247800827E0;1.044319057E1
3.422730849E1;-9.485980988E0;8.569150925E0;9.459831715E-1
3.424397448E1;-1.100249863E1;9.244561195E0;-8.233705521E0
3.426064047E1;-1.160149097E1;1.176376343E1;-4.988726616E0
3.427730646E1;-1.214489365E1;1.470214748E1;1.248938680E0
3.429397245E1;-1.036221027E1;1.594153595E1;3.490561008E0
3.431063844E1;-6.776376724E0;1.594492340E1;4.689540863E0
3.432730443E1;-3.542666912E0;1.500317955E1;5.161366463E0
3.434397042E1;-2.070153713E0;1.223945999E1;2.865090370E0
3.436063641E1;-1.141060591E0;9.860002518E0;1.215060472E0
3.437730240E1;-3.670032740E0;4.241395473E0;1.641215086E0
3.439396838E1;-3.387479305E0;-1.344308853E0;-1.548968911E0
3.441063438E1;-3.415655613E0;-1.993933868E1;-7.088369370E0
3.442730036E1;-7.169711590E-1;-5.964640808E1;-1.739700127E1
3.444396635E1;1.811850548E0;-6.119358444E1;-2.110407257E1
3.446063234E1;1.539763331E0;-2.453421783E1;7.923555374E-2
3.447729833E1;-5.583518028E0;-3.252770424E0;2.227654076E1
3.449396432E1;-1.106560469E0;-1.135769844E0;1.868123817E1
3.451063031E1;7.469935417E-1;-6.219934464E0;7.009939671E0
3.452729630E1;2.093377113E-1;-6.221750259E0;1.761847377E0
3.454396229E1;2.106389999E0;-3.145298958E0;4.681646824E-1
3.456062828E1;5.160496235E0;2.457437515E-1;5.288839340E-1
3.457729427E1;7.409045219E0;3.303686619E0;-3.665387630E-1
3.459396026E1;8.807008743E0;5.585199356E0;-4.873622656E-1
