"Time (s)";"Gyroscope x (rad/s)";"Gyroscope y (rad/s)";"Gyroscope z (rad/s)"
1.677204167E-2;-8.038498759E-1;-1.073192716E0;8.813074231E-2
3.693104167E-2;-1.424363971E0;-1.742109776E0;-6.716853473E-3
5.709104167E-2;-1.783800006E0;-1.884823561E0;-1.410548240E-1
7.725004167E-2;-1.850731015E0;-1.360996246E0;-3.598075509E-1
9.740904167E-2;-1.691433072E0;-5.475761294E-1;-6.390027404E-1
1.175680417E-1;-1.511417985E0;-3.170349821E-2;-7.401130795E-1
1.377270417E-1;-1.248221159E0;1.273416877E-1;-7.064002752E-1
1.578860417E-1;-1.558480382E0;6.494498253E-1;-7.085807323E-1
1.780460417E-1;-1.721470833E0;8.998181820E-1;-5.573375225E-1
1.982050417E-1;-1.817879796E0;8.238235712E-1;-3.308572769E-1
2.183640417E-1;-1.834256768E0;5.456182361E-1;-6.339351833E-2
2.385230417E-1;-1.835009813E0;2.732670903E-1;1.255587488E-1
2.586820417E-1;-1.994067907E0;2.157737613E-1;1.787277460E-1
2.788410417E-1;-2.508181810E0;6.125668883E-1;3.679794967E-1
2.990000417E-1;-2.853938341E0;6.263918877E-1;7.396647334E-1
3.191600417E-1;-2.728954792E0;2.105928957E-1;1.231039762E0
3.393190417E-1;-2.319420576E0;1.162789762E-1;1.740977407E0
3.594780417E-1;-1.812423468E0;4.812967777E-1;1.953289509E0
3.796370417E-1;-1.001907349E0;-1.746768951E-1;1.727358460E0
3.997960417E-1;9.358300567E-1;-1.120549202E0;7.145743966E-1
4.199550417E-1;2.246359825E0;-2.406200886E0;-3.588930368E-1
4.401140417E-1;2.814713478E0;-3.898498297E0;-1.364073992E0
4.602740417E-1;2.948699236E0;-4.776685715E0;-2.066225529E0
4.804330417E-1;2.316602468E0;-3.694114208E0;-1.498107910E0
5.005920417E-1;1.085886955E0;-2.808425188E0;5.821717381E-1
5.207508333E-1;1.070760369E0;-1.860397458E0;1.772702098E0
5.409098333E-1;1.402116179E0;-2.410523176E0;1.805635929E0
5.610688333E-1;1.414764881E0;-2.706124783E0;1.774922013E0
5.812278333E-1;1.040025353E0;-1.949953914E0;1.377892613E0
6.013878333E-1;2.878319472E-2;-9.499679208E-1;1.253751874E0
6.215468333E-1;-7.877177000E-1;-5.148350000E-1;1.458779216E0
6.417058333E-1;-1.045821548E0;-7.443593144E-1;1.358170629E0
6.618648333E-1;-1.058457613E0;-1.347958922E0;1.251287341E0
6.820238333E-1;-1.348541141E0;-1.833138943E0;1.249236465E0
7.021828333E-1;-1.713126540E0;-1.913164496E0;1.400682807E0
7.223418333E-1;-1.868525743E0;-1.975283027E0;1.907425284E0
7.425018333E-1;-1.463283777E0;-1.737471819E0;2.538917780E0
7.626608333E-1;-6.981926560E-1;-1.380242109E0;3.294085741E0
7.828198333E-1;1.291157007E-1;-8.727656007E-1;4.240999699E0
8.029788333E-1;6.503856778E-1;-1.252276897E-1;4.672577381E0
8.231378333E-1;1.284527421E0;7.633538246E-1;4.813621521E0
8.432968333E-1;1.688467741E0;1.002351642E0;4.732196808E0
8.634558333E-1;1.593478084E0;1.173223257E0;4.542523384E0
8.836158333E-1;1.238403320E0;1.644108295E0;3.787535667E0
9.037748333E-1;7.477426529E-1;1.313443184E0;2.464745760E0
9.239338333E-1;-3.600982726E-1;2.306002140E0;1.325928092E0
9.440928333E-1;-5.149205774E-2;1.751983881E0;8.447195888E-1
9.642518333E-1;1.467904925E0;9.818027616E-1;-1.562168717E0
9.844108333E-1;2.260392666E0;-1.056613401E-2;-1.286940694E0
1.004569833E0;2.906846046E0;-2.756336451E0;3.880749643E-1
1.024728833E0;2.506782532E0;-4.286358833E0;2.833277702E0
1.044888833E0;2.014519691E0;-4.710762978E0;3.610783100E0
1.065047833E0;2.062311411E0;-4.672006607E0;3.943338156E0
1.085206833E0;2.599925756E0;-4.573527336E0;4.905418396E0
1.105365833E0;2.983917236E0;-4.334283829E0;5.803704262E0
1.125524833E0;3.112455130E0;-4.750222683E0;5.842764854E0
1.145683833E0;1.819381475E0;-4.303608894E0;3.102122307E0
1.165842833E0;3.515774608E-1;-2.937394619E0;9.600124359E-1
1.186001833E0;-4.754381478E-1;-1.815963626E0;-4.887526035E-1
1.206161833E0;-1.080733657E0;-1.938403726E0;-6.451765299E-1
1.226320833E0;-2.142392635E0;-2.108669996E0;-1.744719595E-2
1.246479833E0;-1.443498254E0;-1.721077323E0;7.871429324E-1
1.266638833E0;-4.980042875E-1;-1.880990744E0;9.172118306E-1
1.286797833E0;-3.414675593E-2;-2.195356369E0;3.494621217E-1
1.306956833E0;-4.850336611E-1;-1.647960782E0;1.490733922E-1
1.327115833E0;-6.716488600E-1;-1.517225862E0;4.458342493E-1
1.347274833E0;-3.169723749E-1;-1.613826990E0;7.865542769E-1
1.367434833E0;-3.866730332E-1;-2.083506823E0;1.167150617E0
1.387593833E0;-4.372633100E-1;-2.049290180E0;1.442791104E0
1.407752833E0;-7.033371925E-1;-1.894863486E0;1.415452957E0
1.427911833E0;-8.780929446E-1;-1.114389658E0;1.264884591E0
1.448070833E0;-1.037541866E0;-1.011927605E0;9.170033336E-1
1.468229833E0;-8.200511932E-1;-1.072368979E0;5.781456232E-1
1.488388833E0;-4.809342623E-1;-1.265941978E0;6.393623948E-1
1.508547833E0;-8.505634069E-1;-1.106701016E0;7.649750113E-1
1.528706917E0;-1.290014744E0;-7.268865108E-1;1.104738235E0
1.548866917E0;-1.119640112E0;-1.366187215E0;1.362611532E0
1.569025917E0;-1.409272671E0;-1.147806525E0;2.332966089E0
1.589184917E0;-1.106654048E0;1.210988522E0;2.252912283E0
1.609343917E0;-1.066829562E0;1.846796513E0;1.580885530E0
1.629502917E0;-2.239797115E0;2.336768150E0;1.559618831E0
1.649661917E0;-3.800240993E0;2.799467087E0;1.200495064E-1
1.669820917E0;-4.127830029E0;2.820324183E0;9.255012274E-1
1.689979917E0;-4.454650879E0;2.613493919E0;1.699243307E0
1.710138917E0;-4.039388657E0;1.365121484E0;1.991893888E0
1.730297917E0;-3.016037703E0;-7.608323693E-1;2.237742186E0
1.750457917E0;-2.235579967E0;-2.643596649E0;2.898095369E0
1.770616917E0;-2.119780064E0;-3.256038427E0;3.403227091E0
1.790775917E0;-2.177652597E0;-5.313336849E0;4.090876102E0
1.810934917E0;-2.101300478E0;-6.693726063E0;4.901276112E0
1.831093917E0;-2.122763872E0;-5.468263626E0;4.987545490E0
1.851252917E0;-2.953931689E-2;1.860218287E0;2.029790401E0
1.871411917E0;1.042160630E0;1.404100776E0;2.279542208E0
1.891570917E0;-6.750649810E-1;1.707828522E0;1.959973574E0
1.911729917E0;-6.085551977E-1;2.247834206E0;9.979755282E-1
1.931889917E0;-7.659015656E-1;2.357329607E0;8.096550107E-1
1.952048917E0;-7.182464004E-1;1.606668115E0;1.025733590E0
1.972207917E0;-1.141940802E-1;4.389396310E-1;1.396958232E0
1.992366917E0;3.673650622E-1;3.399772346E-1;1.105225801E0
2.012525917E0;4.907282293E-1;5.990437865E-1;6.764222383E-1
2.032684917E0;6.043977737E-1;6.619429588E-1;8.353672028E-1
2.052843917E0;8.616495728E-1;8.761881590E-1;1.001114726E0
2.073002917E0;8.237754703E-1;1.654676795E0;7.817304730E-1
2.093161917E0;7.274329066E-1;1.964668155E0;-1.969908830E-3
2.113320917E0;2.869853284E-3;8.086006045E-1;1.940346509E-2
2.133479917E0;-8.616942912E-2;5.954679102E-2;6.920490861E-1
2.153639917E0;-1.523521543E-1;-6.841566414E-2;5.784375668E-1
2.173798917E0;-2.841727138E-1;-2.240435332E-1;3.972586393E-1
2.193957917E0;-5.729250908E-1;-7.491283417E-1;3.198116422E-1
2.214116917E0;-1.200335860E0;-1.779647917E-2;4.029292762E-1
2.234275917E0;-1.696273088E0;1.407930493E0;6.025739312E-1
2.254434917E0;-1.766647816E0;2.714397430E0;3.627876639E-1
2.274593917E0;-1.902835250E0;3.764027357E0;3.861333430E-1
2.294752917E0;-1.746324778E0;3.602906942E0;8.409450948E-2
2.314911917E0;-1.281196356E0;1.938464761E0;4.300444424E-1
2.335070917E0;-1.175993919E0;1.234997153E0;2.784367502E-1
2.355229917E0;-1.016050220E0;1.074857831E0;1.048955917E-1
2.375388917E0;-2.556832433E-1;5.311198831E-1;-6.363907456E-2
2.395547917E0;1.000943899E0;2.410486192E-1;-6.211637259E-1
2.415706917E0;1.892042398E0;-7.152157426E-1;-1.568935275E0
2.435866917E0;4.336110055E-1;-1.966362000E0;-1.469504476E0
2.456025917E0;-2.192322016E-1;-2.896488190E0;-1.835179329E0
2.476184917E0;6.826252937E-1;-3.110302687E0;-1.633812785E0
2.496343917E0;1.142203689E0;-3.925585747E0;-7.636311054E-1
2.516502792E0;-5.071488395E-2;-4.023341656E0;-5.365278721E-1
2.536661792E0;-5.632575750E-1;-2.350488186E0;-4.181213975E-1
2.556820792E0;-4.872403741E-1;-9.195404649E-1;-5.171141401E-2
2.576979792E0;-1.724248976E-1;-1.559821814E-1;1.485824734E-1
2.597138792E0;-5.644733831E-2;6.679062247E-1;1.778653860E-1
2.617297792E0;-2.026386932E-2;7.305333018E-1;1.347079426E-1
2.637456792E0;-4.797454551E-2;2.958380878E-1;7.833275199E-2
2.657615792E0;-1.236953437E-1;-1.138655469E-1;4.933559522E-2
2.677774792E0;-1.750022769E-1;-3.578907251E-1;5.675794929E-2
2.697934792E0;-1.267587990E-1;-4.596493542E-1;9.733351320E-2
2.718093792E0;-5.334671959E-2;-3.762649894E-1;1.107834429E-1
2.738252792E0;-3.941867128E-2;-2.783644199E-1;9.802316129E-2
2.758411792E0;-5.288306624E-2;-2.234970331E-1;1.010309458E-1
2.778570792E0;-1.273616869E-2;-3.556479514E-1;9.564891458E-2
2.798729792E0;8.460198343E-2;-5.588623881E-1;6.024409458E-2
2.818888792E0;2.510894239E-1;-1.228788853E0;2.609582245E-2
2.839047792E0;4.136042297E-1;-1.811860442E0;-1.032985747E-1
2.859206792E0;1.008901298E-1;-1.298864841E0;-2.897367999E-2
2.879365792E0;-1.319753081E-1;-2.240683511E-2;5.852971971E-2
2.899524792E0;8.891721815E-2;2.663654462E-2;2.769307699E-3
2.919683792E0;8.033934236E-2;1.364651918E-1;6.641910970E-2
2.939842792E0;2.290047854E-1;-7.644211501E-2;-4.160499573E-2
2.960001792E0;2.164045125E-1;-4.805791974E-1;-1.283868998E-1
2.980160792E0;-7.445929199E-2;-9.785570204E-2;-9.182458371E-2
3.000319792E0;-2.933494747E-2;1.199335307E-1;-3.240232170E-2
3.020478792E0;1.027622819E-1;8.004036732E-3;-9.309346229E-2
3.040638792E0;9.560787678E-2;1.044692378E-2;-1.398392320E-1
3.060797792E0;9.467976540E-2;-6.636503339E-2;-1.560799927E-1
3.080956792E0;-6.114814803E-2;-6.612903625E-2;-1.635866910E-1
3.101115792E0;1.244267970E-1;-2.296484113E-1;-1.952453107E-1
3.121274792E0;1.508655995E-1;-3.953834176E-1;-2.285564542E-1
3.141433792E0;1.090037450E-1;-5.264469981E-1;-3.348103166E-1
3.161592792E0;-1.609153673E-2;-2.506223023E-1;-2.439431995E-1
3.181751792E0;-5.579466373E-2;1.682863981E-1;-9.461480379E-2
3.201910792E0;-1.050125137E-1;4.539882243E-1;1.014139410E-2
3.222069792E0;-3.017009497E-1;4.911980629E-1;8.348827809E-2
3.242228792E0;-3.071756959E-1;3.344516754E-1;1.058286875E-1
3.262387792E0;-2.215688378E-1;2.982279062E-1;5.895768851E-2
3.282546792E0;-1.423988640E-1;2.177535892E-1;6.161454320E-2
3.302705792E0;-1.735736430E-1;1.404797733E-1;1.565207690E-1
3.322864792E0;-9.969759732E-2;4.622766748E-2;1.505196244E-1
3.343023792E0;-3.742562979E-2;1.148828417E-1;8.561086655E-2
3.363182792E0;-1.137602702E-1;3.136692345E-1;-1.328764111E-2
3.383341792E0;-5.944161117E-2;7.516111434E-2;-1.069756150E-1
3.403501792E0;5.497005209E-2;4.145465791E-2;-1.385742575E-1
3.423660792E0;2.117131203E-1;-7.530827820E-2;-3.250665367E-1
3.443819792E0;6.335246563E-1;-7.535533309E-1;-5.774195790E-1
3.463978792E0;1.556377113E-1;-5.670272112E-1;-1.907163411E-1
3.484137792E0;-2.268346399E-1;8.053782582E-2;-6.455696374E-2
3.504296792E0;-5.479780585E-2;5.526924878E-2;-6.193125248E-2
3.524455917E0;9.205324203E-2;7.397904992E-2;-3.187523782E-2
3.544614917E0;4.596641064E-1;-6.137069464E-1;-1.754493862E-1
3.564773917E0;7.569832802E-1;-1.012984157E0;-2.764397264E-1
3.584932917E0;6.850480437E-1;-8.688847423E-1;-3.722153008E-1
3.605091917E0;6.868689656E-1;-8.922162056E-1;-4.445084631E-1
3.625250917E0;4.182741046E-1;-6.320950985E-1;-2.943521738E-1
3.645409917E0;1.471400708E-1;-3.150289357E-1;2.944471687E-2
3.665568917E0;1.140814424E-1;-2.202079445E-1;9.599214792E-2
3.685727917E0;6.536941230E-2;-1.357740611E-1;1.129948571E-1
3.705886917E0;5.704421923E-2;-2.272229344E-1;6.164943799E-2
3.726045917E0;7.713049650E-2;-2.666633129E-1;1.558170840E-2
3.746204917E0;1.725435704E-1;-3.642767668E-1;-2.715728246E-2
3.766363917E0;1.727442890E-1;-4.203424752E-1;-8.225712180E-2
3.786522917E0;2.021037787E-1;-5.411639810E-1;-1.365406066E-1
3.806681917E0;1.715335846E-1;-4.891148210E-1;-1.201109365E-1
3.826840917E0;2.405686080E-1;-4.379345179E-1;-1.650670618E-1
3.847000917E0;2.318660766E-1;-4.841949344E-1;-1.164332256E-1
3.867159917E0;1.947223246E-1;-4.001235664E-1;-8.660401404E-2
3.887318917E0;2.361983806E-2;-1.115920097E-1;4.244957864E-2
3.907477917E0;-9.301627055E-3;-1.203455264E-3;-4.602409527E-2
3.927636917E0;-4.574013874E-2;6.259377301E-2;-1.597329676E-1
3.947795917E0;-8.943587542E-2;9.354436398E-2;-1.353683472E-1
3.967954917E0;-8.322925866E-2;2.187201381E-2;-6.239558756E-2
3.988113917E0;-1.134255007E-1;7.634128630E-2;4.121064767E-2
4.008272917E0;-1.580275893E-1;2.260556817E-1;7.763443142E-2
4.028431917E0;-1.840985715E-1;4.103310108E-1;1.656848937E-1
4.048590917E0;-2.526813745E-1;4.669674039E-1;1.642404050E-1
4.068749917E0;-2.549570501E-1;5.121548772E-1;1.480718106E-1
4.088908917E0;-1.964808255E-1;4.751049280E-1;1.231126860E-1
4.109067917E0;-2.849615514E-1;6.064382195E-1;8.437991887E-2
4.129226917E0;-4.776141346E-1;8.530924320E-1;6.229919568E-2
4.149385917E0;-6.124832034E-1;9.476747513E-1;4.071068764E-2
4.169544917E0;-6.062417626E-1;9.745362401E-1;1.196650341E-1
4.189703917E0;-4.645817876E-1;8.248789907E-1;2.432509810E-1
4.209862917E0;-3.057275712E-1;6.440515518E-1;2.407871336E-1
4.230021917E0;-3.981474042E-1;2.017490864E-1;6.459007412E-2
4.250180917E0;-4.859398901E-1;-2.317617983E-1;1.525394022E-1
4.270339917E0;1.438701302E-1;-1.366668105E0;1.856140643E-1
4.290498917E0;6.045413017E-1;-1.971297026E0;1.985868812E-1
4.310657917E0;5.449044704E-1;-5.998955369E-1;-4.818437696E-1
4.330816917E0;-2.407246269E-3;6.676598191E-1;-3.959816396E-1
4.350975917E0;-3.758334816E-1;9.270339608E-1;-1.859228164E-1
4.371134917E0;-5.701416135E-1;3.394090831E-1;1.383033674E-2
4.391293917E0;-1.073262811E0;-4.842043221E-1;6.672530621E-2
4.411452917E0;-1.210753322E0;-4.146149457E-1;-1.005770415E-1
4.431611917E0;-6.160368919E-1;7.700398564E-2;-4.411525428E-1
4.451770917E0;-5.228381231E-2;-4.326379299E-1;-5.549921989E-1
4.471929917E0;-1.291749720E-2;-4.420085251E-1;-4.666769207E-1
4.492088917E0;-8.473822474E-2;-1.414256990E-1;-3.903436363E-1
4.512247917E0;3.913387191E-3;9.309796989E-2;-1.045341343E-1
4.532406667E0;1.361556053E-1;-4.586989433E-2;-1.207234859E-1
4.552565667E0;4.095034897E-1;-4.836905897E-1;-2.634528279E-1
4.572725667E0;7.144754529E-1;-8.775961995E-1;-5.557627082E-1
4.592884667E0;8.590348959E-1;-1.055724621E0;-6.897365451E-1
4.613043667E0;6.441906691E-1;-7.090743184E-1;-6.059761047E-1
4.633202667E0;3.987772167E-1;-3.802830577E-1;-5.300928354E-1
4.653361667E0;4.049598575E-1;-3.605597317E-1;-3.877495229E-1
4.673520667E0;2.203258723E-1;-1.293217391E-1;-2.072634846E-1
4.693679667E0;1.489264667E-1;-5.858045444E-2;-1.773043871E-1
4.713838667E0;1.683330387E-1;-6.931737810E-2;-1.944727451E-1
4.733997667E0;1.032419801E-1;6.268318743E-2;-1.308261603E-1
4.754156667E0;1.512792427E-2;1.943229139E-1;1.649570465E-2
4.774315667E0;2.759797126E-2;1.749241650E-1;3.558911383E-2
4.794474667E0;6.427916698E-3;9.875553846E-2;1.822831109E-2
4.814633667E0;-8.804212324E-3;8.733940125E-2;7.190411910E-3
4.834792667E0;1.601186767E-2;9.727982432E-2;1.972199231E-2
4.854951667E0;2.942274138E-2;1.283443719E-1;4.504790157E-2
4.875110667E0;3.074808419E-2;9.287045151E-2;5.750636756E-2
4.895269667E0;6.278845016E-3;2.723836526E-2;2.875934541E-2
4.915428667E0;-1.204500720E-2;3.183715791E-2;7.636178285E-3
4.935587667E0;-7.733289618E-3;4.126446694E-2;2.743561752E-3
4.955746667E0;-1.007581223E-2;4.258470237E-2;1.972845010E-2
4.975905667E0;1.846144721E-2;1.139890030E-2;2.445917763E-2
4.996064667E0;2.149244770E-2;4.921386950E-3;2.272351831E-2
5.016223667E0;2.677754313E-2;-2.631926537E-2;1.435633749E-4
5.036382667E0;-8.592078462E-3;2.084978856E-3;-6.961113308E-3
5.056541667E0;4.063874111E-2;-3.270727396E-2;-1.676298864E-2
5.076700667E0;3.716917336E-2;1.077372860E-2;-2.273401618E-2
5.096859667E0;8.764474839E-2;-3.566186503E-2;-3.063279577E-2
5.117018667E0;1.680837423E-1;-1.160580292E-1;-6.533629447E-2
5.137177667E0;2.341591567E-1;-2.217714489E-1;-9.885134548E-2
5.157336667E0;9.503996372E-2;-2.409306914E-2;-1.792944670E-1
5.177495667E0;1.405538470E-1;-2.074451894E-1;-1.361662745E-1
5.197654667E0;2.333455682E-1;-2.423935980E-1;-2.082061023E-1
5.217813667E0;2.331283092E-1;-3.557111621E-1;-2.145399898E-1
5.237972667E0;1.356962770E-1;-2.760276794E-1;-1.679247618E-1
5.258131667E0;4.869341850E-2;-1.508926004E-1;-1.328620911E-1
5.278290667E0;-3.982543480E-3;-1.609727144E-1;-5.886837095E-2
5.298449667E0;-7.782531530E-2;-7.315760106E-2;-1.236216165E-2
5.318608667E0;-1.679915749E-2;-1.207951233E-1;-3.463673592E-2
5.338767667E0;1.100473851E-1;-1.542117000E-1;-6.069374084E-2
5.358926667E0;1.254475564E-1;-1.869031191E-1;-4.020161927E-2
5.379085667E0;6.660006940E-2;-1.976861656E-1;-2.368249744E-2
5.399244667E0;1.201224998E-1;-1.979106367E-1;-3.068411164E-2
5.419403667E0;8.846376091E-3;4.702336714E-2;5.872629210E-2
5.439562667E0;5.676038563E-5;1.987219788E-2;4.128656536E-2
5.459721667E0;-1.399748027E-2;-1.736759394E-2;7.486437261E-2
5.479880667E0;1.693546213E-2;-7.221460342E-2;6.626649946E-2
5.500038667E0;-4.434046522E-2;3.239639103E-2;7.024773955E-2
5.520197667E0;-1.069139838E-1;1.592287123E-1;7.298819721E-2
5.540356667E0;-8.623664081E-2;1.262090355E-1;5.023304373E-2
5.560515667E0;-1.320385840E-2;8.449938148E-2;5.093906820E-2
5.580674667E0;1.847633533E-2;1.974413544E-2;6.822880358E-2
5.600833667E0;-5.481230840E-2;-2.203710610E-3;6.204337627E-2
5.620992667E0;-1.152248830E-1;5.580453575E-2;6.658640504E-2
5.641151667E0;-6.313921511E-2;6.036645919E-2;2.809845842E-2
5.661310667E0;8.439055085E-2;-4.290127754E-2;1.753005385E-2
5.681469667E0;2.446143888E-2;-9.008264542E-2;2.204144932E-2
5.701628667E0;-8.687265962E-2;-1.105423570E-1;-3.177652881E-2
5.721787667E0;-1.392581314E-1;3.837011755E-2;-5.259175599E-2
5.741946667E0;-1.722320020E-1;1.397630274E-1;-5.887321010E-2
5.762105667E0;-1.073397100E-1;2.002546936E-1;-1.152296290E-1
5.782264667E0;1.377259344E-1;3.496486321E-2;-1.217162609E-1
5.802423667E0;2.136487663E-1;-1.265650839E-1;-1.426137537E-1
5.822582667E0;1.103647202E-1;-1.374254525E-1;-8.567722887E-2
5.842741667E0;1.595231704E-2;-5.651705712E-2;-5.459732190E-2
5.862900667E0;-7.715372834E-3;-7.325045764E-2;-3.124689125E-2
5.883059667E0;-1.291776728E-2;-1.341689974E-1;-2.623609453E-2
5.903218667E0;-7.737742364E-2;-1.288061403E-2;8.012519032E-2
5.923377667E0;-5.761123449E-2;-5.698723719E-2;1.376046389E-1
5.943536667E0;-8.292676508E-2;-8.597633243E-2;2.123598158E-1
5.963695667E0;-8.815032244E-2;-8.960961550E-2;2.698996365E-1
5.983854667E0;-5.830545351E-2;-1.515196711E-1;1.599938273E-1
6.004013667E0;-2.792483009E-2;-1.561413407E-1;9.173429012E-2
6.024172667E0;-1.212656964E-2;-1.125772074E-1;5.874754488E-2
6.044331667E0;-3.871178254E-2;-2.459848225E-1;4.478793219E-2
6.064490667E0;-2.945072055E-1;3.595810235E-1;1.709940583E-1
6.084649667E0;-2.722474337E-1;3.558752239E-1;6.494057924E-2
6.104808667E0;-4.945476726E-2;1.296836138E-1;-6.071664859E-3
6.124967667E0;2.624650113E-2;-1.104639098E-1;-1.460782997E-2
6.145126667E0;-4.453717917E-2;-1.730334908E-1;1.337696612E-2
6.165284667E0;-8.537486941E-2;1.318219211E-2;1.273057163E-1
6.185443667E0;-1.092169955E-1;1.608195156E-1;1.739321351E-1
6.205602667E0;-1.063735634E-1;1.795052737E-1;1.838039756E-1
6.225761667E0;2.999638207E-2;1.411903352E-1;6.358997524E-2
6.245920667E0;-7.426308841E-2;2.971067429E-1;4.420492426E-2
6.266079667E0;-1.363741606E-1;2.371613383E-1;3.724879026E-2
6.286238667E0;-8.871544152E-2;1.414302588E-1;1.374827512E-2
6.306397667E0;-2.967549860E-2;-3.107974119E-2;-4.292125255E-2
6.326556667E0;-1.196909100E-1;-5.179081485E-2;5.245029461E-3
6.346715667E0;-1.222352311E-1;1.345049404E-2;5.561700091E-2
6.366874667E0;-1.037466750E-1;1.199019104E-1;8.471924067E-2
6.387033667E0;5.918735266E-2;-4.668099433E-2;3.224889636E-1
6.407192667E0;-2.035254985E-1;8.301121742E-2;2.571896017E-1
6.427351667E0;-3.445051312E-1;9.545119852E-2;2.251696587E-1
6.447510667E0;-1.460398436E-1;2.882175148E-2;8.263348788E-2
6.467669667E0;-4.426728562E-2;3.761491179E-2;4.852249846E-2
6.487828667E0;-1.186890528E-1;1.364822537E-1;3.587057814E-2
6.507987667E0;-9.212866426E-2;1.479029804E-1;-2.275230363E-3
6.528147042E0;5.026055127E-2;1.123248413E-1;1.318128873E-2
6.548306042E0;2.161213756E-1;1.265597530E-4;4.479654878E-2
6.568464042E0;4.356648624E-1;-3.734641373E-1;8.943089843E-2
6.588623042E0;5.859786272E-1;-7.042681575E-1;2.086539865E-1
6.608782042E0;3.290313184E-1;-4.753759503E-1;3.421385884E-1
6.628941042E0;6.865554303E-2;-6.357733160E-2;3.119988143E-1
6.649100042E0;5.824523978E-4;-4.547614232E-2;1.838489026E-1
6.669259042E0;-8.226931840E-2;5.929089151E-3;3.736411408E-2
6.689418042E0;-7.885058224E-2;2.464751601E-1;4.244938120E-2
6.709577042E0;-1.694487780E-1;3.528043032E-1;1.118792966E-1
6.729736042E0;6.594853103E-2;-4.698458314E-2;5.621638894E-2
6.749895042E0;2.765401639E-2;3.356594592E-2;6.451051682E-2
6.770054042E0;4.397256672E-2;-1.850877143E-2;5.425699428E-2
6.790213042E0;4.092656076E-2;-7.263313234E-2;5.429825187E-2
6.810372042E0;-4.781111702E-2;1.520265359E-3;4.252462089E-2
6.830531042E0;-1.718010604E-1;1.148152426E-1;-1.689783670E-2
6.850690042E0;-5.191418901E-2;3.151703626E-3;1.724340487E-3
6.870849042E0;4.963341355E-2;3.412522376E-2;3.553245217E-2
6.891007042E0;-3.979305178E-2;2.825252712E-3;1.812191680E-2
6.911166042E0;-8.757711202E-2;-1.010443270E-1;-9.577093646E-3
6.931325042E0;-5.050959997E-3;-4.610370379E-3;2.043573000E-2
6.951484042E0;3.840996698E-2;-1.172686927E-2;3.476753086E-2
6.971643042E0;6.753242761E-2;-6.342667341E-2;9.818959981E-2
6.991802042E0;6.978890300E-2;-1.776259206E-2;1.740240455E-1
7.011961042E0;7.752437890E-2;2.580833435E-2;2.514320612E-1
7.032120042E0;6.904297322E-2;-2.280775085E-2;3.576041758E-1
7.052279042E0;1.023666635E-1;-2.383094877E-1;3.685927093E-1
7.072438042E0;-4.825379327E-2;-1.058381051E-1;2.978115380E-1
7.092597042E0;-1.073998511E-1;-5.153704435E-2;1.315109134E-1
7.112756042E0;-4.590302333E-2;-1.965595186E-1;-9.221735597E-2
7.132915042E0;-4.502851982E-3;-2.296676636E-1;-6.431914866E-2
7.153073042E0;1.660619117E-2;-2.340841740E-1;3.937547095E-3
7.173232042E0;-3.638121486E-2;-1.875064373E-1;9.090617299E-3
7.193391042E0;-2.225702256E-2;-1.718484461E-1;1.335950475E-2
7.213550042E0;1.125501189E-2;-1.687409133E-1;-1.982409973E-3
7.233709042E0;-3.270460293E-2;9.710025042E-4;1.535314694E-2
7.253868042E0;-1.017415449E-1;1.536435932E-1;-4.081409052E-2
7.274027042E0;-3.949894756E-2;-2.832673863E-2;-3.040405922E-2
7.294186042E0;-5.683075637E-3;-6.385321170E-2;-2.333916165E-2
7.314345042E0;-9.934042580E-3;-4.198578745E-2;-1.074343454E-2
7.334504042E0;1.591072045E-2;-6.389842182E-2;-5.483448040E-3
7.354663042E0;-2.642751671E-3;-3.751974553E-2;-2.303945646E-2
7.374822042E0;-1.823103242E-2;-2.846739441E-2;-1.089384407E-2
7.394980042E0;-2.031714655E-2;-1.623974182E-2;-2.805966884E-3
7.415139042E0;-3.691600636E-2;5.124587566E-3;9.508816525E-3
7.435298042E0;-1.535348780E-2;-5.594349280E-2;5.016312003E-2
7.455457042E0;-5.458157044E-3;-8.551945537E-2;1.688097604E-3
7.475616042E0;-1.431461796E-2;-2.309159003E-2;9.283903055E-3
7.495775042E0;8.784841746E-3;1.981486380E-2;-1.187278144E-2
7.515934042E0;1.059209276E-2;4.205538705E-2;-7.877590135E-3
7.536093292E0;-3.414546326E-2;1.089352667E-1;-1.596448570E-2
7.556252292E0;-7.881300896E-2;1.675070673E-1;-4.978404567E-2
7.576411292E0;-2.395936521E-3;6.126397848E-2;-4.140160605E-2
7.596570292E0;-5.227822810E-3;4.123870283E-2;-3.841081262E-2
7.616728292E0;-7.650531828E-3;7.014447451E-2;-5.224593729E-2
7.636887292E0;5.873473361E-3;8.232179284E-2;-6.382257491E-2
7.657046292E0;4.010849819E-2;9.013755620E-2;-6.659752876E-2
7.677205292E0;2.698695660E-2;1.467693597E-1;-8.335030079E-2
7.697364292E0;-4.270803183E-3;2.354188710E-1;-1.104994863E-1
7.717523292E0;-2.433431894E-2;2.879740000E-1;-1.296296418E-1
7.737682292E0;-5.500845984E-2;3.400585055E-1;-1.483202726E-1
7.757841292E0;-8.303775638E-2;2.939277887E-1;-1.063713655E-1
7.778000292E0;-2.724183910E-2;1.164522618E-1;-6.370041519E-2
7.798159292E0;6.479025632E-2;3.408984467E-2;-1.951711718E-3
7.818317292E0;9.793637693E-2;-4.156481475E-2;-3.783805296E-2
7.838476292E0;3.144473210E-2;-5.119741336E-2;-3.358944319E-3
7.858635292E0;4.343656078E-2;-1.101417840E-1;1.611375995E-2
7.878794292E0;4.303273559E-2;-1.095735282E-1;2.128160745E-2
7.898953292E0;1.955351047E-2;-6.691646576E-2;1.125982217E-2
7.919112292E0;5.778162740E-3;-5.189747363E-2;5.468308926E-3
7.939271292E0;3.713530954E-3;-4.277363420E-2;-1.017485559E-2
7.959430292E0;-2.624492627E-4;-9.997748770E-3;-2.028867975E-2
7.979589292E0;4.197664559E-3;7.057107054E-3;-3.031040356E-2
7.999748292E0;6.039862521E-3;3.187780827E-2;-3.231672198E-2
8.019906292E0;6.948294118E-3;5.146090314E-2;-2.820732445E-2
8.040065292E0;9.058346972E-3;3.893930838E-2;-2.604408003E-2
8.060224292E0;1.762765832E-2;2.523892932E-2;-1.459793560E-2
8.080383292E0;4.537276924E-2;-3.107728437E-2;-8.646611124E-3
8.100542292E0;4.612156004E-2;-5.331978202E-2;7.107215934E-3
8.120701292E0;2.898707800E-2;-5.215099081E-2;2.334682271E-2
8.140860292E0;-5.506637972E-4;-8.283582516E-3;6.292145699E-3
8.161019292E0;1.096434053E-2;-3.148245066E-2;1.326927729E-2
8.181177292E0;2.040702291E-2;-1.851889491E-2;1.998730749E-2
8.201336292E0;1.865181886E-2;3.376869485E-3;2.127523161E-2
8.221495292E0;3.302897792E-3;2.279905230E-2;1.847131178E-2
8.241654292E0;-8.447084576E-3;2.393903956E-2;1.196496561E-2
8.261813292E0;-1.052882057E-2;1.540799439E-2;1.318932138E-2
8.281972292E0;-3.126724437E-2;8.687329292E-2;1.126565784E-2
8.302131292E0;3.144232323E-3;-3.617799655E-2;-6.604336202E-3
8.322290292E0;-3.541129176E-3;-4.624792375E-3;8.872972801E-3
8.342449292E0;1.346306596E-2;-3.111756593E-2;6.833463442E-3
8.362607292E0;9.335520677E-3;-9.824614972E-3;-6.756321061E-3
8.382766292E0;-7.696905173E-3;6.972871721E-2;1.636425965E-3
8.402925292E0;1.657120883E-2;4.749955982E-2;1.080529951E-2
8.423084292E0;1.848268136E-2;-2.959938347E-2;4.549869336E-4
8.443243292E0;-1.069065090E-2;-2.792399004E-2;-1.272020489E-2
8.463402292E0;-3.179963678E-2;8.696230501E-2;-3.706817515E-3
8.483561292E0;1.125999028E-3;1.793952286E-2;-8.650811389E-3
8.503720292E0;2.473921329E-2;2.409494668E-2;-3.446220979E-2
8.523877792E0;1.070083398E-2;-4.516080767E-2;-3.933034465E-2
8.544036792E0;2.343769558E-2;-7.066064328E-2;-3.559321165E-2
8.564195792E0;4.320777953E-3;2.940895036E-2;-2.546781674E-2
8.584354792E0;4.377507418E-2;-8.377136290E-2;-3.458788991E-2
8.604513792E0;-1.341504045E-2;5.363778025E-2;-1.110858284E-2
8.624672792E0;9.254291654E-3;3.763464838E-2;-1.084751077E-2
8.644831792E0;2.405371517E-2;1.733158156E-2;-1.223173924E-2
8.664990792E0;8.493900299E-3;2.527173981E-2;-5.841976497E-3
8.685148792E0;5.875774194E-3;1.622650772E-2;-3.313919529E-3
8.705307792E0;-1.382490061E-2;3.142648563E-2;3.291927977E-3
8.725466792E0;-2.740382217E-2;2.372634783E-2;4.422215745E-3
8.745625792E0;-2.509016171E-2;1.628823206E-2;7.755283266E-3
8.765784792E0;-2.764845639E-2;7.054670714E-3;8.892268874E-3
8.785943792E0;-2.273865044E-2;1.016697288E-2;2.843738534E-3
8.806102792E0;-1.400279114E-3;3.762148321E-2;-8.438600227E-3
8.826260792E0;2.035019919E-2;3.374521434E-2;-2.467013709E-2
8.846419792E0;3.752028197E-2;2.029655501E-3;-1.835873164E-2
8.866578792E0;2.164266631E-2;1.710303873E-2;-2.472792752E-2
8.886737792E0;3.436455503E-2;-2.480437513E-3;-5.048096180E-2
8.906896792E0;5.790591985E-2;-2.688533440E-2;-5.660346523E-2
8.927055792E0;4.421312734E-2;-4.320801049E-2;-5.155013502E-2
8.947214792E0;2.518922649E-2;-3.672031686E-2;-3.579104692E-2
8.967372792E0;-1.084369607E-3;-3.419945389E-2;-3.147213534E-2
8.987531792E0;-1.306072623E-2;-4.979875684E-2;-2.619061619E-2
9.007690792E0;-1.827635057E-2;-3.701003641E-2;-3.006109037E-2
9.027849792E0;-2.942901477E-2;1.286734454E-2;-3.481024504E-2
9.048008792E0;-1.907172054E-2;2.106442302E-2;-3.782977536E-2
9.068167792E0;-3.903532866E-3;1.910875924E-2;-1.185275242E-2
9.088326792E0;8.298859000E-3;8.945722133E-3;5.099169444E-3
9.108484792E0;3.300415352E-2;-8.354556747E-3;2.504881937E-3
9.128643792E0;3.772938391E-3;1.393126417E-2;1.669516787E-2
9.148802792E0;-6.189716980E-3;2.028084546E-2;3.583359765E-3
9.168961792E0;7.523756474E-3;-2.096780762E-2;1.949935220E-2
9.189120792E0;3.095430508E-2;-3.054481559E-2;2.564074472E-2
9.209279792E0;2.600867674E-2;-2.193031646E-2;1.035483554E-2
9.229437792E0;7.344856858E-3;-3.150581568E-2;5.441508256E-3
9.249596792E0;2.761763707E-2;-3.528031334E-2;7.131816819E-3
9.269755792E0;3.651408479E-3;-5.259785801E-3;-9.113363922E-3
9.289914792E0;5.775189027E-3;-3.475246485E-3;-1.822041161E-2
9.310073792E0;6.090590730E-2;-8.320984989E-2;-1.401095651E-2
9.330232792E0;2.840711176E-2;-1.426547486E-2;1.396892965E-2
9.350391792E0;1.323487423E-2;-4.447425902E-2;1.264894381E-2
9.370549792E0;1.974077336E-2;-4.261631519E-2;1.510163397E-2
9.390708792E0;4.750830680E-2;-4.245475680E-2;-7.296288386E-3
9.410867792E0;4.792091623E-2;-5.762128159E-2;1.559417509E-2
9.431026792E0;7.305068523E-2;-8.293879777E-2;6.649354473E-3
9.451185792E0;6.723196805E-2;-3.613301739E-2;7.359902374E-4
9.471344792E0;6.813647598E-2;-3.704270720E-2;-2.672482841E-2
9.491502792E0;7.980057597E-2;-5.758913606E-2;-4.052883014E-2
9.511661792E0;4.795641452E-2;-5.404701829E-2;-7.889023982E-3
9.531820958E0;2.725854702E-2;-3.681048006E-2;3.010165645E-3
9.551979958E0;1.470389962E-2;-4.953290801E-3;7.038913667E-3
9.572138958E0;5.991340056E-2;2.100775950E-3;-2.487384900E-2
9.592297958E0;4.446555674E-2;2.586540207E-2;1.194335055E-2
9.612455958E0;1.613375172E-2;5.411509052E-2;2.525866404E-2
9.632614958E0;3.016568534E-2;5.641513318E-2;1.817522943E-2
9.652773958E0;4.599290714E-2;5.274168029E-2;9.382372722E-3
9.672932958E0;5.680337921E-2;1.139325742E-2;-1.621394232E-2
9.693091958E0;-1.013368834E-2;-2.339859754E-1;-1.423928887E-1
9.713250958E0;-7.093649358E-2;-3.407541811E-1;-4.229216576E-1
9.733408958E0;-1.153805405E-1;7.499239594E-2;-3.168199658E-1
9.753567958E0;-8.645490557E-2;2.092639953E-1;2.078078501E-2
9.773726958E0;-4.599265382E-2;2.343737185E-1;1.208443716E-1
9.793885958E0;7.132806629E-2;1.534631848E-1;2.663296163E-1
9.814044958E0;4.007225856E-2;1.689032316E-1;2.426916361E-1
9.834203958E0;6.358799525E-3;-7.515625656E-2;1.448590457E-1
9.854361958E0;5.610953271E-2;-1.685829461E-1;4.971943051E-2
9.874520958E0;1.446757913E-1;-2.213320881E-1;-5.975051783E-3
9.894679958E0;2.182531655E-1;-2.479089200E-1;2.124491334E-2
9.914838958E0;2.023211867E-1;-3.218488395E-1;1.562816203E-1
9.934997958E0;1.366204023E-2;-1.933259368E-1;3.079290092E-1
9.955155958E0;-2.805218101E-1;2.993895859E-2;2.605850101E-1
9.975314958E0;-3.488976955E-1;1.270937324E-1;1.165079027E-1
9.995473958E0;-1.172653213E-1;-1.857668906E-1;1.084030494E-1
1.001563296E1;-8.551119268E-2;-9.972373396E-2;8.276527748E-3
1.003579196E1;-1.469524205E-2;-1.827888787E-1;1.013236120E-2
1.005595096E1;4.891552776E-2;-2.178241462E-1;-2.972323261E-2
1.007610896E1;5.234858394E-2;-2.203018665E-1;-1.153749228E-2
1.009626796E1;2.487825416E-2;-2.336965501E-1;-6.586511619E-3
1.011642696E1;6.435655057E-2;-2.657350898E-1;2.321165800E-2
1.013658596E1;7.154894620E-2;-1.773263663E-1;-2.123490162E-2
1.015674496E1;3.794141486E-2;-1.166529730E-1;-4.901003093E-2
1.017690296E1;3.295840696E-2;-1.883185655E-1;-3.895424306E-2
1.019706196E1;3.333670646E-2;-1.830034554E-1;-7.374860346E-2
1.021722096E1;-3.581616282E-2;-7.575161010E-2;-8.568229526E-2
1.023737996E1;-2.365427278E-2;-5.042115599E-2;-8.786106855E-2
1.025753896E1;8.784803562E-3;6.993450224E-2;-7.053942978E-2
1.027769696E1;1.440243423E-2;1.781869978E-1;-7.035487890E-2
1.029785596E1;-2.466027066E-2;2.587469816E-1;-6.956280768E-2
1.031801496E1;-7.841818035E-3;2.575844824E-1;-8.611421287E-2
1.033817396E1;3.381501511E-2;2.104818225E-1;-7.764101774E-2
1.035833296E1;3.984459490E-2;2.260121405E-1;-5.762236938E-2
1.037849196E1;1.163089089E-2;2.221964002E-1;-2.424140647E-2
1.039864996E1;1.331031416E-2;1.990573406E-1;3.911362030E-3
1.041880896E1;3.337251395E-2;1.996275485E-1;7.344466168E-3
1.043896796E1;3.566858172E-2;2.383434176E-1;3.120720759E-2
1.045912696E1;-1.958400384E-2;3.801061809E-1;6.555786729E-2
1.047928596E1;2.314781398E-2;3.123941422E-1;8.579993993E-2
1.049944396E1;2.926669084E-2;2.376290709E-1;1.464334726E-1
1.051960296E1;8.793704957E-2;7.494984567E-2;1.722448319E-1
1.053976204E1;1.182467118E-1;-3.988838941E-2;9.678394347E-2
1.055992104E1;4.389117658E-2;-4.190482199E-3;1.262291223E-1
1.058008004E1;4.165343009E-3;2.957401611E-2;1.195046827E-1
1.060023804E1;2.592050470E-2;-4.240948334E-2;1.183397919E-1
1.062039704E1;5.137258396E-2;-5.820712820E-2;7.486914098E-2
1.064055604E1;3.596228734E-2;-7.037227601E-2;9.717583656E-2
1.066071504E1;2.502629161E-2;-8.782836050E-2;1.193818524E-1
1.068087404E1;4.014061764E-2;-1.216299459E-1;1.520927548E-1
1.070103204E1;5.823249742E-2;-1.098296866E-1;1.882177442E-1
1.072119104E1;6.774581969E-2;-9.611791372E-2;2.368847430E-1
1.074135004E1;9.031872451E-2;-8.273269236E-2;2.629354894E-1
1.076150904E1;1.336161494E-1;-7.088413835E-2;2.443940490E-1
1.078166704E1;1.881186068E-1;-7.742096484E-2;2.140178382E-1
1.080182604E1;2.275708467E-1;-9.237058461E-2;2.123216540E-1
1.082198504E1;2.254940420E-1;-6.368634105E-2;2.019583136E-1
1.084214404E1;2.150468975E-1;-1.686787233E-2;1.802004874E-1
1.086230304E1;2.071521878E-1;2.517378703E-2;1.613016725E-1
1.088246104E1;2.137250900E-1;2.483919263E-2;1.471724212E-1
1.090262004E1;2.153571844E-1;1.510276180E-2;1.239515096E-1
1.092277904E1;1.851821840E-1;1.396800671E-2;1.144854277E-1
1.094293804E1;1.459279805E-1;1.111496147E-2;1.170612350E-1
1.096309704E1;1.151794419E-1;4.850884899E-3;1.068043336E-1
1.098325504E1;1.157830730E-1;-2.583523514E-3;1.082585454E-1
1.100341404E1;1.649898887E-1;-2.705161646E-2;8.087754250E-2
1.102357304E1;1.990280151E-1;-1.980861649E-2;7.431204617E-2
1.104373204E1;2.309933752E-1;-3.899436072E-2;1.107398719E-1
1.106389004E1;2.034840435E-1;-3.173285350E-2;1.648738682E-1
1.108404904E1;1.803392917E-1;-2.005694248E-2;1.857461929E-1
1.110420804E1;5.068028718E-2;5.607695878E-2;1.749583185E-1
1.112436704E1;6.860041618E-2;5.432509631E-2;1.272790581E-1
1.114452604E1;1.696987152E-1;2.404592931E-3;1.245723888E-1
1.116468404E1;2.978843153E-1;-1.044114679E-1;1.528291404E-1
1.118484304E1;4.716675580E-1;-4.176220298E-2;3.544340283E-2
1.120500204E1;3.491394818E-1;-1.333098412E-1;6.554507464E-2
1.122516104E1;2.759216130E-1;-1.895781755E-1;1.064390764E-1
1.124531904E1;3.049835563E-1;-1.336085200E-1;1.278733462E-1
1.126547804E1;3.725810945E-1;-4.692931846E-2;1.009378880E-1
1.128563704E1;3.690069914E-1;-3.503818437E-2;1.157411337E-1
1.130579604E1;2.530882657E-1;-4.033529758E-2;1.413110197E-1
1.132595504E1;2.146085948E-1;-4.865697771E-2;1.315948069E-1
1.134611304E1;2.316607833E-1;-4.056091607E-2;1.117595211E-1
1.136627204E1;1.927343756E-1;-5.821363255E-2;1.437917501E-1
1.138643104E1;1.617835611E-1;-8.287120610E-2;1.374946535E-1
1.140659004E1;1.632284224E-1;-1.037158668E-1;1.339633614E-1
1.142674804E1;1.783992797E-1;-1.072726026E-1;1.260599196E-1
1.144690704E1;1.536874026E-1;-1.124214083E-1;1.416960806E-1
1.146706604E1;1.203829050E-1;-9.608228505E-2;1.241700202E-1
1.148722504E1;1.104626954E-1;-1.259202063E-1;9.535638988E-2
1.150738304E1;3.766947240E-2;-1.950394511E-1;6.801816076E-2
1.152754217E1;1.800238043E-1;-1.214573979E-1;-9.494064748E-2
1.154770117E1;2.619989216E-1;-5.720121041E-2;-1.438026316E-2
1.156786017E1;2.358728647E-1;-7.238828391E-2;6.972787529E-2
1.158801817E1;1.602212489E-1;-8.210524172E-2;2.827896271E-3
1.160817717E1;1.153340787E-1;-6.571798027E-2;-1.127602383E-1
1.162833617E1;1.753685474E-1;-3.856432810E-2;-2.419766784E-1
1.164849517E1;1.280851513E-1;-7.013563812E-2;-2.161170840E-1
1.166865317E1;1.178075820E-1;-1.064592376E-1;-2.894482017E-1
1.168881217E1;1.264855117E-1;-9.060659260E-2;-3.683457673E-1
1.170897117E1;1.275778264E-1;-6.551133096E-2;-4.552492201E-1
1.172913017E1;1.200860068E-1;-3.057747707E-2;-4.872383773E-1
1.174928917E1;1.400417984E-1;5.178520456E-3;-5.224967003E-1
1.176944717E1;2.083670199E-1;3.688602149E-2;-5.630835891E-1
1.178960617E1;2.783410847E-1;7.599996030E-2;-6.169595122E-1
1.180976517E1;2.979347408E-1;8.009111136E-2;-6.542507410E-1
1.182992417E1;3.304038942E-1;8.865640312E-2;-6.788352132E-1
1.185008217E1;4.254941940E-1;7.934732735E-2;-7.649530172E-1
1.187024117E1;5.081689954E-1;1.151117459E-1;-7.544351816E-1
1.189040017E1;5.502890348E-1;1.763527095E-1;-7.619177103E-1
1.191055917E1;5.213673115E-1;2.725018263E-1;-8.055155873E-1
1.193071717E1;4.708548188E-1;3.717120588E-1;-8.193311691E-1
1.195087617E1;3.706929088E-1;4.287320077E-1;-7.568313479E-1
1.197103517E1;2.161303014E-1;4.255590141E-1;-6.362475157E-1
1.199119417E1;1.121373624E-1;4.556078017E-1;-5.894694328E-1
1.201135217E1;6.927008182E-2;4.621142149E-1;-6.729107499E-1
1.203151117E1;4.529065266E-2;6.056923866E-1;-8.163583279E-1
1.205167017E1;-3.746355698E-2;6.154295802E-1;-8.549044132E-1
1.207182817E1;-3.027320802E-1;6.877461076E-1;-7.599411607E-1
1.209198717E1;-5.478169918E-1;7.613484859E-1;-7.787390351E-1
1.211214617E1;-5.876416564E-1;7.584422827E-1;-8.062251210E-1
1.213230517E1;-5.113764405E-1;7.458631396E-1;-8.472274542E-1
1.215246317E1;-4.664948881E-1;7.143585682E-1;-9.524579644E-1
1.217262217E1;-3.965457678E-1;6.437417269E-1;-8.833085299E-1
1.219278117E1;-3.949535489E-1;6.458560824E-1;-8.052408099E-1
1.221294017E1;-2.407895029E-1;5.280570388E-1;-6.390392184E-1
1.223309817E1;1.653932184E-1;2.377194613E-1;-5.459725261E-1
1.225325717E1;3.560432792E-1;-7.975674421E-2;-4.512794316E-1
1.227341617E1;1.947001964E-1;-1.276434064E-1;-4.811950624E-1
1.229357517E1;-1.621113904E-2;-8.326496184E-2;-3.947436810E-1
1.231373317E1;-7.838995755E-2;6.515739858E-2;-1.127978191E-1
1.233389217E1;-1.517211646E-1;3.929766417E-1;9.863902628E-2
1.235405117E1;-3.165119588E-1;7.442881465E-1;4.811109602E-2
1.237421017E1;-5.342174172E-1;1.279202938E0;1.695545465E-1
1.239436817E1;-8.341333866E-1;1.396741033E0;2.082912624E-1
1.241452717E1;-7.602269650E-1;1.404282093E0;2.070248574E-1
1.243468617E1;-4.151975513E-1;1.547521949E0;2.269349843E-1
1.245484417E1;-1.180521473E-1;1.709760070E0;1.755674034E-1
1.247500317E1;-5.044309422E-3;1.398481250E0;4.349325299E-1
1.249516217E1;-2.024576217E-1;1.302229524E0;7.015833855E-1
1.251532117E1;-3.904879391E-1;1.042941332E0;8.304305673E-1
1.253547954E1;-5.039947033E-1;9.585694671E-1;1.029958010E0
1.255563854E1;-4.999617636E-1;8.355934620E-1;1.022782087E0
1.257579754E1;-3.772816956E-1;8.251957297E-1;8.522992134E-1
1.259595554E1;-1.355196834E-1;6.325293183E-1;6.589705348E-1
1.261611454E1;1.131362766E-1;6.400412321E-1;4.917351007E-1
1.263627354E1;1.853142381E-1;7.651714087E-1;4.659419954E-1
1.265643254E1;1.904520988E-1;8.423707485E-1;4.270649552E-1
1.267659054E1;1.272281855E-1;7.914721370E-1;3.549095690E-1
1.269674954E1;6.947863102E-2;7.821029425E-1;3.697254956E-1
1.271690854E1;6.211492792E-2;6.833869815E-1;4.226099849E-1
1.273706754E1;1.512705088E-1;5.222437978E-1;4.932488203E-1
1.275722554E1;4.768187646E-3;5.455291867E-1;6.353741288E-1
1.277738454E1;2.209294960E-2;5.190582871E-1;6.773830056E-1
1.279754354E1;6.986317784E-2;6.042214632E-1;7.255802155E-1
1.281770154E1;2.093383372E-1;8.256276250E-1;7.221806645E-1
1.283786054E1;3.908709288E-1;8.742194176E-1;6.959199309E-1
1.285801954E1;4.178701341E-1;8.380267024E-1;7.032166719E-1
1.287817754E1;3.478786051E-1;1.017888784E0;6.833880544E-1
1.289833654E1;3.364908099E-1;1.095823407E0;6.370186210E-1
1.291849554E1;3.694368303E-1;1.027966976E0;6.255356669E-1
1.293865454E1;4.716539681E-1;9.372766614E-1;6.655130386E-1
1.295881254E1;5.857775211E-1;8.942254186E-1;7.252721190E-1
1.297897154E1;7.007415295E-1;8.239337802E-1;5.661193132E-1
1.299913054E1;7.739298344E-1;8.180497289E-1;3.827687502E-1
1.301928854E1;7.946337461E-1;7.816314101E-1;2.299045920E-1
1.303944754E1;7.363374233E-1;8.601480126E-1;1.624232829E-1
1.305960654E1;6.267274022E-1;7.292855382E-1;3.345564604E-1
1.307976454E1;1.796803474E-1;5.188471079E-1;6.420329213E-1
1.309992354E1;-9.315659851E-2;6.143718958E-1;3.971088231E-1
1.312008254E1;-1.544206962E-2;4.861933589E-1;1.734547764E-1
1.314024154E1;2.703301907E-1;6.978365779E-1;1.017779484E-1
1.316039954E1;3.309971392E-1;4.314939380E-1;-1.088116970E-2
1.318055854E1;5.380458236E-1;1.930378973E-1;-1.247178316E-1
1.320071754E1;6.449822783E-1;1.872444153E-1;-5.875023454E-2
1.322087554E1;4.619339406E-1;1.955453008E-1;1.773067564E-2
1.324103454E1;3.773066401E-1;3.248963952E-1;5.279158056E-2
1.326119354E1;2.684699297E-1;5.256402493E-1;4.714030772E-2
1.328135154E1;1.788312644E-1;3.324146867E-1;-5.457055196E-2
1.330151054E1;5.307185650E-2;4.104508460E-1;-1.196114197E-1
1.332166954E1;3.361884877E-2;3.556131721E-1;-2.155859023E-1
1.334182854E1;6.873687357E-2;4.969991446E-1;-2.090233713E-1
1.336198654E1;-7.038433850E-2;4.340956807E-1;-1.132284701E-1
1.338214554E1;-2.306844592E-1;3.654600382E-1;-1.558210254E-1
1.340230454E1;-2.998710275E-1;3.744391799E-1;-1.351921707E-1
1.342246254E1;-4.306458235E-1;5.255290270E-1;-1.068309173E-1
1.344262154E1;-4.886614680E-1;4.563294053E-1;-1.863429397E-1
1.346278054E1;-5.676155686E-1;1.810100079E-1;-2.432616204E-1
1.348293854E1;-6.451274157E-1;-4.964095354E-2;-1.532903910E-1
1.350309754E1;-7.984179854E-1;-1.664223075E-1;-7.470911369E-4
1.352325654E1;-8.956282735E-1;-5.330901220E-2;6.781784445E-2
1.354341417E1;-1.016507268E0;-1.682051271E-2;4.418293387E-2
1.356357317E1;-9.881337881E-1;-4.443535581E-4;-1.458921470E-2
1.358373217E1;-8.855898976E-1;-2.989886105E-1;5.252598226E-2
1.360389017E1;-9.277081490E-1;-5.305600762E-1;1.002087146E-1
1.362404917E1;-1.101810694E0;-5.849848986E-1;-1.076618955E-2
1.364420817E1;-1.263460279E0;-5.398950577E-1;-1.060295254E-1
1.366436617E1;-1.189604759E0;-2.420048863E-1;-1.362297088E-1
1.368452517E1;-8.812348843E-1;3.632513061E-2;-1.816090792E-1
1.370468417E1;-7.833460569E-1;1.559348702E-1;-7.803209871E-2
1.372484317E1;-7.107824683E-1;2.312769741E-1;1.676913910E-2
1.374500117E1;-6.072623730E-1;2.426560074E-1;2.352043390E-1
1.376516017E1;-5.590544343E-1;1.500924379E-1;3.692512512E-1
1.378531917E1;-4.802288413E-1;2.609517574E-1;2.881805301E-1
1.380547717E1;-2.652254701E-1;3.072130084E-1;3.089441359E-1
1.382563617E1;-2.299505621E-1;2.230159193E-1;1.847708821E-1
1.384579517E1;-1.079399288E-1;1.779819429E-1;4.421148449E-2
1.386595317E1;-1.585392803E-1;2.662965655E-1;1.751596853E-2
1.388611217E1;-3.936342001E-1;5.673629642E-1;7.196549326E-2
1.390627117E1;-4.870382249E-1;7.018716931E-1;1.062955484E-1
1.392642917E1;-4.575410485E-1;6.572613716E-1;2.404352427E-1
1.394658817E1;-4.193727076E-1;6.141701937E-1;3.128281534E-1
1.396674717E1;-2.815380991E-1;5.042494535E-1;3.956731558E-1
1.398690517E1;-1.944568604E-1;4.424279332E-1;4.217606485E-1
1.400706417E1;5.838338286E-2;2.756756842E-1;3.802052140E-1
1.402722317E1;1.789681464E-1;1.639772207E-1;3.694907725E-1
1.404738117E1;2.009952813E-1;1.574284583E-1;3.169266284E-1
1.406754017E1;-1.911157668E-1;-1.370041166E-2;3.464535177E-1
1.408769917E1;-5.407498479E-1;1.188463438E-2;3.842577338E-1
1.410785717E1;-6.357124448E-2;3.417128623E-1;4.123667479E-1
1.412801617E1;2.615930736E-1;-2.215166809E-3;5.681460500E-1
1.414817417E1;3.911139071E-1;-2.030947804E-1;4.851313531E-1
1.416833317E1;3.621591926E-1;-2.851982415E-1;5.177990794E-1
1.418849217E1;1.822142005E-1;-2.291592062E-1;5.693171024E-1
1.420865017E1;5.759035051E-2;7.886727899E-2;5.620924830E-1
1.422880917E1;-1.144601256E-1;5.622030497E-1;4.843893349E-1
1.424896817E1;-3.250117898E-1;1.100104570E0;3.703518510E-1
1.426912617E1;-3.715760112E-1;1.493623972E0;4.002101421E-1
1.428928517E1;-3.089355528E-1;1.571667790E0;2.763657570E-1
1.430944417E1;-1.461303532E-1;1.653349280E0;1.061373129E-1
1.432960217E1;-2.986808680E-2;1.562250257E0;-2.542430907E-2
1.434976117E1;3.370607644E-2;1.382596135E0;-6.555008143E-2
1.436992017E1;1.808613986E-1;1.284577608E0;-6.494150311E-2
1.439007817E1;1.376614273E-1;1.202788353E0;-1.424881816E-1
1.441023717E1;-7.902305573E-2;1.110744238E0;-1.444163322E-1
1.443039617E1;-1.857036799E-1;9.919623733E-1;-3.719168901E-2
1.445055417E1;-2.141843885E-1;9.254065156E-1;-2.370904572E-2
1.447071317E1;-2.651632130E-1;6.501244903E-1;-7.024237514E-2
1.449087217E1;-7.436123490E-2;-7.619928569E-2;-2.441015989E-1
1.451103017E1;-6.017394736E-2;-1.430550963E-2;2.933472162E-3
1.453118892E1;-4.375940561E-1;-1.065464467E-1;1.066779494E-1
1.455134692E1;-5.529544353E-1;2.150450051E-1;2.758574784E-1
1.457150592E1;-5.031922460E-1;4.527889490E-1;3.156861961E-1
1.459166492E1;-3.726163208E-1;4.755842984E-1;4.603927732E-1
1.461182292E1;-4.481289983E-1;5.990895629E-1;5.089727044E-1
1.463198192E1;-5.086112022E-1;6.227378845E-1;5.042781830E-1
1.465214092E1;-5.424302816E-1;3.817131817E-1;4.098795652E-1
1.467229892E1;-5.350304842E-1;2.452035062E-2;2.862244844E-1
1.469245792E1;-5.066747665E-1;-2.055172771E-1;2.347597778E-1
1.471261692E1;-4.558281302E-1;-3.775371313E-1;2.830033004E-1
1.473277492E1;-3.444348276E-1;-4.023852050E-1;3.130474389E-1
1.475293392E1;-2.402076572E-1;-5.238032937E-1;2.514930367E-1
1.477309192E1;-1.250926703E-1;-6.622714400E-1;1.237741262E-1
1.479325092E1;-4.020604119E-2;-6.386748552E-1;7.109564263E-3
1.481340992E1;-2.519460209E-2;-5.006083250E-1;-1.911149919E-2
1.483356792E1;-6.747563928E-2;-3.860879242E-1;3.500650823E-2
1.485372692E1;-1.460190713E-1;-3.231273592E-1;6.376665086E-2
1.487388592E1;-1.059786454E-1;-2.818585038E-1;7.635076344E-2
1.489404392E1;1.073448546E-2;-3.320965767E-1;1.182479784E-1
1.491420292E1;1.752800643E-1;-3.169863522E-1;1.986761242E-1
1.493436192E1;2.351196855E-1;-3.493921459E-1;2.181749493E-1
1.495451992E1;2.517397404E-1;-4.157067537E-1;2.354139984E-1
1.497467892E1;2.701897621E-1;-5.712938905E-1;1.884339601E-1
1.499483692E1;2.627225220E-1;-6.180725694E-1;1.403380781E-1
1.501499592E1;2.042009383E-1;-6.726933122E-1;1.022048667E-1
1.503515492E1;9.514053911E-2;-7.586025596E-1;1.499623358E-1
1.505531292E1;-1.760406233E-2;-9.747756124E-1;1.752088666E-1
1.507547192E1;4.278310016E-2;-9.204004407E-1;2.483413219E-1
1.509563092E1;4.890998453E-2;-9.445085526E-1;1.420349330E-1
1.511578892E1;-2.373986989E-1;-1.256551385E0;8.628746867E-2
1.513594792E1;-5.033807755E-1;-9.775487185E-1;-1.047080606E-1
1.515610592E1;-4.192446172E-1;-5.924423337E-1;-3.607584238E-1
1.517626492E1;-1.728749275E-1;-6.539643407E-1;-5.289022923E-1
1.519642392E1;-1.083706021E-1;-5.805737972E-1;-6.163957119E-1
1.521658192E1;-1.092317030E-1;-4.561499059E-1;-6.445590258E-1
1.523674092E1;4.370825738E-2;-1.820996851E-1;-5.528063774E-1
1.525689892E1;2.346908748E-1;-1.826809021E-3;-4.118431509E-1
1.527705792E1;4.535495043E-1;1.845074445E-1;-2.456961423E-1
1.529721692E1;4.004516304E-1;4.132101834E-1;-1.745490283E-1
1.531737492E1;4.005108476E-1;4.948463142E-1;-1.279269904E-1
1.533753392E1;3.632903695E-1;4.444250464E-1;-1.236004755E-1
1.535769192E1;2.527242303E-1;3.523520827E-1;-1.338636279E-1
1.537785092E1;2.088495493E-1;3.017191887E-1;-1.442524344E-1
1.539800992E1;1.947099566E-1;3.210950196E-1;-1.518346965E-1
1.541816792E1;1.828081161E-1;3.097061515E-1;-1.281654239E-1
1.543832692E1;2.350496203E-1;3.853913844E-1;-5.278200656E-2
1.545848592E1;2.814774513E-1;4.837028980E-1;5.809305608E-2
1.547864392E1;2.983191013E-1;5.763542056E-1;1.376328021E-1
1.549880292E1;2.700066864E-1;6.901234388E-1;1.556161642E-1
1.551896092E1;2.158007324E-1;7.373499274E-1;1.509051174E-1
1.553912029E1;2.401082516E-1;8.136655092E-1;2.335222065E-1
1.555927929E1;2.879504859E-1;8.415236473E-1;3.810175955E-1
1.557943729E1;2.750909925E-1;8.366110325E-1;5.041965842E-1
1.559959629E1;3.565781116E-1;6.253411174E-1;5.225425363E-1
1.561975429E1;5.022827387E-1;3.095556796E-1;3.842093647E-1
1.563991329E1;7.134768367E-1;1.797753870E-1;3.780081272E-1
1.566007229E1;7.565286160E-1;1.203211471E-1;3.976871669E-1
1.568023029E1;7.419435978E-1;1.896709055E-1;4.208354652E-1
1.570038929E1;6.754923463E-1;1.380235553E-1;3.624133766E-1
1.572054729E1;5.520359874E-1;2.181204855E-1;2.534945011E-1
1.574070629E1;4.139939547E-1;3.212415576E-1;2.335527539E-1
1.576086529E1;5.069190860E-1;3.950622976E-1;9.482321888E-2
1.578102329E1;3.378182650E-1;3.757002354E-1;1.596838422E-2
1.580118229E1;2.150962055E-1;1.292815357E-1;-8.919537812E-2
1.582134029E1;2.207028568E-1;1.249821633E-1;-1.307329834E-1
1.584149929E1;2.271880955E-1;9.875518829E-2;-2.736586332E-1
1.586165729E1;4.076130986E-1;-8.117666468E-3;-3.315191567E-1
1.588181629E1;6.348599195E-1;2.086213604E-2;-3.482281566E-1
1.590197529E1;6.888129711E-1;1.209494658E-2;-3.547905385E-1
1.592213329E1;7.024317980E-1;-1.506103426E-1;-3.087906837E-1
1.594229229E1;7.975464463E-1;-2.174609601E-1;-2.135824412E-1
1.596245029E1;7.821511030E-1;-2.498172373E-1;-1.944411397E-1
1.598260929E1;7.075993419E-1;-2.216208130E-1;-2.475508153E-1
1.600276829E1;6.638542414E-1;-1.657879204E-1;-3.575873971E-1
1.602292629E1;5.550901890E-1;-1.859230250E-1;-4.163079858E-1
1.604308529E1;5.230891705E-1;-4.102860391E-2;-3.786535859E-1
1.606324329E1;5.763200521E-1;1.618193537E-1;-3.573552370E-1
1.608340229E1;6.503860354E-1;2.198820114E-1;-3.662582636E-1
1.610356029E1;6.895477176E-1;1.762502491E-1;-4.344392419E-1
1.612371929E1;7.031678557E-1;6.583800912E-2;-4.997283816E-1
1.614387829E1;7.480869889E-1;1.565626077E-2;-4.543532729E-1
1.616403629E1;6.661804914E-1;5.528511405E-1;-5.457233787E-1
1.618419529E1;6.323857307E-1;7.100902796E-1;-4.061052501E-1
1.620435329E1;6.078006029E-1;3.850328624E-1;-3.211437464E-1
1.622451229E1;3.471282423E-1;6.971716881E-1;-2.733559012E-1
1.624467129E1;8.351982571E-3;8.062026501E-1;-1.474897712E-1
1.626482929E1;-1.266403496E-1;4.474894702E-1;-2.464933097E-1
1.628498829E1;-4.200563580E-2;1.009092554E-1;-4.473688006E-1
1.630514629E1;-1.189318225E-1;3.862631321E-1;-3.747431636E-1
1.632530529E1;-5.236330442E-3;2.020474710E-2;-1.461837441E-1
1.634546329E1;1.925850064E-1;-4.848518670E-1;-1.472097039E-1
1.636562229E1;1.132902429E-1;-1.932016850E0;-2.032806575E-1
1.638578129E1;-6.308959126E-1;-2.589453220E0;-2.986716926E-1
1.640593929E1;-1.313996792E0;-7.774277925E-1;-1.111527681E-1
1.642609829E1;-1.256704211E0;9.408117533E-1;1.992055327E-1
1.644625629E1;-9.319961667E-1;1.678174734E0;2.540873587E-1
1.646641529E1;-5.353356004E-1;1.314200521E0;2.270573974E-1
1.648657329E1;-2.778365612E-1;5.788926482E-1;7.072667032E-2
1.650673229E1;-2.248159647E-1;5.516581237E-2;-4.417078197E-2
1.652689129E1;-3.786319196E-1;-3.850092590E-1;-9.389301389E-2
1.654704879E1;-5.057973862E-1;-3.998553455E-1;-2.236556262E-2
1.656720779E1;-4.972881973E-1;-4.873646051E-2;9.835592657E-2
1.658736579E1;-4.330808818E-1;2.819258720E-3;1.254873574E-1
1.660752479E1;-2.779297829E-1;-1.624588519E-1;9.640228003E-2
1.662768279E1;-1.377242655E-1;-2.823290229E-1;6.437360775E-3
1.664784179E1;-5.374044180E-2;-2.885993421E-1;-1.673993319E-1
1.666799979E1;2.233908279E-3;-1.801788062E-1;-1.562301964E-1
1.668815879E1;-2.086192183E-2;-4.157039523E-2;1.723630354E-2
1.670831779E1;-1.028215736E-1;-9.168163687E-2;6.610550731E-2
1.672847579E1;-2.442489564E-1;-8.303090930E-2;2.281863242E-2
1.674863479E1;-1.729279608E-1;-1.328451931E-1;-1.471672021E-2
1.676879279E1;1.458873227E-2;-2.908525765E-1;-2.833110467E-2
1.678895179E1;-2.622171678E-2;-3.158907294E-1;-3.111986816E-2
1.680910979E1;-1.402809918E-1;-2.710996382E-2;-2.049536258E-2
1.682926879E1;-1.866769046E-1;7.253237814E-2;-4.118475318E-2
1.684942779E1;-6.007456779E-2;7.098304480E-2;-4.504731297E-2
1.686958579E1;6.368579715E-2;2.868449688E-2;-2.918720990E-2
1.688974479E1;7.215788960E-2;-7.666713744E-2;-2.035887912E-2
1.690990279E1;-1.495561935E-2;-1.428791583E-1;-6.018273532E-2
1.693006179E1;-2.057677880E-2;-8.798839897E-2;-1.426800061E-2
1.695021979E1;2.058533486E-3;-3.857469559E-2;3.502359986E-2
1.697037879E1;-1.007762104E-1;-2.286405712E-1;1.323874742E-1
1.699053679E1;-1.043592095E-1;-2.327605933E-1;1.018531807E-2
1.701069579E1;-3.253233433E-1;-6.821902841E-2;-5.416239053E-2
1.703085379E1;-2.631108761E-1;4.686546326E-2;-1.215544641E-1
1.705101279E1;-1.950897574E-1;8.422044665E-2;-1.158862468E-2
1.707117179E1;-1.027660519E-1;-1.984639019E-1;4.399509355E-2
1.709132979E1;-2.307453156E-1;-4.763449132E-1;1.570070684E-1
1.711148879E1;-5.096372962E-1;-3.095397353E-1;5.034216046E-1
1.713164679E1;-4.346925020E-1;-4.749144912E-1;5.237216949E-1
1.715180579E1;-8.879178762E-2;-7.343837023E-1;1.838043332E-1
1.717196379E1;9.144162387E-2;-9.172459245E-1;-1.227698177E-1
1.719212279E1;-2.869848311E-1;-5.019072890E-1;-1.210196316E-1
1.721228079E1;-2.008402199E-1;2.450765073E-1;-3.625141457E-3
1.723243979E1;-1.173724234E-1;3.796613514E-1;-6.188811362E-2
1.725259779E1;-2.784008980E-1;1.779263169E-1;3.995053470E-3
1.727275679E1;-1.909296811E-1;4.095597565E-2;1.580915302E-1
1.729291479E1;4.238204658E-1;-3.213214576E-1;6.160608679E-2
1.731307379E1;2.607479393E-1;-6.424835920E-1;1.413847059E-1
1.733323279E1;5.813284963E-2;-6.814070940E-1;7.524447143E-2
1.735339079E1;1.075429469E-1;-6.009665132E-1;-1.098264530E-1
1.737354979E1;1.341846436E-1;-4.590298235E-1;-2.188962400E-1
1.739370779E1;-4.913801700E-2;-5.277432203E-1;-4.688914493E-2
1.741386679E1;1.303429306E-1;-3.092398122E-2;-3.156260028E-2
1.743402479E1;1.087330505E-1;6.296793818E-1;-1.548495740E-1
1.745418379E1;-2.987573855E-2;7.519740462E-1;1.926341280E-2
1.747434179E1;-2.730749846E-1;4.405717552E-1;3.946302235E-1
1.749450079E1;-5.819243193E-1;2.791179419E-1;5.131042600E-1
1.751465879E1;-3.816343248E-1;2.011396140E-1;4.358123243E-1
1.753481804E1;-1.679324429E-3;1.121059805E-2;2.923175097E-1
1.755497604E1;-1.483573318E-1;8.436413109E-2;1.105844900E-1
1.757513504E1;-4.141688645E-1;2.349811494E-1;1.826835424E-1
1.759529304E1;-3.329806328E-1;4.241277277E-1;-1.642706618E-2
1.761545204E1;-1.792042404E-1;1.805925667E-1;-1.057200655E-1
1.763561004E1;-1.023278162E-1;5.816689730E-1;-2.323575467E-1
1.765576904E1;1.421995834E-2;7.039624453E-1;-2.178289890E-1
1.767592804E1;-1.923732087E-2;6.814503670E-1;-1.377845556E-1
1.769608604E1;-3.210076690E-1;6.360970140E-1;2.469451576E-1
1.771624504E1;-4.068659842E-1;6.586902142E-1;3.128016591E-1
1.773640304E1;-3.876938522E-1;5.457218289E-1;2.556462288E-1
1.775656204E1;-4.590438008E-1;6.986667514E-1;2.999218702E-1
1.777672004E1;-2.587439418E-1;5.050123334E-1;3.000388145E-1
1.779687904E1;-1.007647738E-1;1.322727799E-1;2.846636176E-1
1.781703704E1;-3.128439933E-2;-4.435712695E-1;1.667754725E-2
1.783719604E1;-8.809342235E-2;-1.009897590E0;-2.958630919E-1
1.785735404E1;2.266687602E-1;-2.810475588E0;-5.138065219E-1
1.787751304E1;3.822969794E-1;-3.833594561E0;-5.174236298E-1
1.789767104E1;8.532523513E-1;-1.400794625E0;-2.985724434E-2
1.791783004E1;-3.531582654E-1;6.513484120E-1;2.972114980E-1
1.793798804E1;-6.217118502E-1;8.741074800E-1;4.385494888E-1
1.795814704E1;-4.156250358E-1;7.501387596E-2;6.682080030E-1
1.797830504E1;1.651663780E-1;-6.242647767E-1;6.086204648E-1
1.799846404E1;9.089822322E-2;-3.817850351E-1;3.060932159E-1
1.801862204E1;1.121809036E-1;-1.249490380E-1;-5.282685906E-2
1.803878104E1;-2.667932957E-2;-8.772754669E-2;-8.852404356E-2
1.805893904E1;1.168655455E-1;-1.804703623E-1;-5.489332974E-2
1.807909804E1;1.724312305E-1;-2.767668664E-1;-2.969939262E-2
1.809925604E1;5.977984145E-2;-1.240194216E-1;-2.735034004E-2
1.811941504E1;-3.550929204E-2;7.442183048E-2;-3.276551515E-2
1.813957304E1;5.615694821E-2;2.353110760E-1;-6.307187676E-2
1.815973204E1;4.305593297E-2;3.235754073E-1;-9.517507255E-2
1.817989004E1;1.716548204E-1;3.213366866E-1;-2.029160261E-1
1.820004904E1;2.252669185E-1;1.767374426E-1;-2.750605345E-1
1.822020704E1;2.020203620E-1;-6.170647591E-2;-1.489253938E-1
1.824036604E1;2.012692243E-1;-2.725463808E-1;-3.724674508E-2
1.826052404E1;2.003173679E-1;-9.695680439E-2;-1.532800943E-1
1.828068304E1;2.023238093E-1;-2.003264427E-1;-1.576264352E-1
1.830084104E1;7.205142081E-2;-4.117771983E-1;-1.153534353E-1
1.832100004E1;6.284286827E-2;-5.499135852E-1;-3.957110643E-2
1.834115804E1;2.395155840E-3;-5.742631555E-1;4.224849865E-3
1.836131704E1;-1.751630157E-1;-5.965073109E-1;-3.394195437E-2
1.838147504E1;-2.296824455E-1;-7.754240632E-1;-4.828946665E-2
1.840163404E1;-3.522862494E-1;-1.073400497E0;-4.129366204E-2
1.842179204E1;-5.630335808E-1;-1.280544043E0;-5.861433595E-2
1.844195104E1;-7.357313633E-1;-1.112253547E0;6.847161334E-3
1.846210904E1;-6.849281192E-1;-8.782209158E-1;1.328725815E-1
1.848226804E1;-4.442362785E-1;-2.746763825E-1;9.127687663E-2
1.850242604E1;-4.225433469E-1;-3.023359776E-1;-4.752044566E-3
1.852258504E1;-6.332873106E-1;-6.183220744E-1;8.492305130E-2
1.854274296E1;-7.300229669E-1;-7.542642355E-1;2.900569439E-1
1.856290196E1;-6.206226349E-1;-6.650890708E-1;1.873151958E-1
1.858305996E1;-6.101137996E-1;-4.986904562E-1;1.202275157E-1
1.860321896E1;-6.825955510E-1;-1.424053609E-1;2.516653389E-2
1.862337696E1;-5.709448457E-1;2.789425664E-3;3.256370872E-2
1.864353596E1;-4.613189697E-1;-6.750414521E-2;1.976867020E-2
1.866369396E1;-3.067677021E-1;-1.109064221E-1;5.463274568E-2
1.868385296E1;-2.516237497E-1;-1.444258839E-1;3.436974436E-2
1.870401096E1;-1.659279764E-1;-2.742598355E-1;-6.352470070E-2
1.872416996E1;-2.788790874E-2;-3.129184246E-1;-7.605718821E-2
1.874432796E1;1.404994726E-1;-3.231642246E-1;-1.185588017E-1
1.876448696E1;1.996741891E-1;-5.237241983E-1;-1.729561687E-1
1.878464496E1;2.770934701E-1;-5.097590685E-1;-3.072342277E-1
1.880480296E1;8.368622512E-2;-6.338006854E-1;-3.689226806E-1
1.882496196E1;3.323620930E-2;-6.442094445E-1;-3.734961152E-1
1.884511996E1;2.191471159E-1;-5.265227556E-1;-4.323040545E-1
1.886527896E1;2.840701938E-1;-3.957121968E-1;-5.010459423E-1
1.888543696E1;3.608163595E-1;-3.453196883E-1;-4.297829270E-1
1.890559596E1;3.182742000E-1;-4.138795137E-1;-3.014593720E-1
1.892575396E1;3.410882652E-1;-3.093455136E-1;-2.273850739E-1
1.894591296E1;5.114741325E-1;-1.575789899E-1;-2.450863868E-1
1.896607096E1;7.173242569E-1;-1.092890203E-1;-3.402642608E-1
1.898622996E1;8.394476771E-1;3.265273757E-3;-3.522320092E-1
1.900638796E1;8.448271155E-1;1.438315678E-2;-4.059726000E-1
1.902654696E1;6.888985634E-1;1.877614260E-1;-4.363659620E-1
1.904670496E1;6.749205589E-1;2.723581493E-1;-4.555089474E-1
1.906686396E1;5.707641840E-1;4.021349251E-1;-3.752879500E-1
1.908702196E1;2.495441437E-1;3.422134221E-1;-2.797958255E-1
1.910718096E1;3.186743706E-2;3.100585938E-1;-2.210406065E-1
1.912733896E1;-8.455730975E-3;2.572808862E-1;-1.601078957E-1
1.914749796E1;-5.084358454E-1;1.041562110E-1;2.608945966E-2
1.916765596E1;-4.926781356E-1;1.207222641E-1;-1.504780501E-1
1.918781396E1;9.717979282E-2;-9.291723371E-2;-3.331858516E-1
1.920797296E1;8.471844345E-2;-8.926528692E-2;-2.652610838E-1
1.922813096E1;1.057961062E-1;-1.951733381E-1;-7.613007724E-2
1.924828996E1;-6.351382285E-2;2.432493120E-2;-8.007155359E-2
1.926844796E1;-8.933112025E-2;2.254486829E-2;-7.177686691E-2
1.928860696E1;-4.596950486E-2;5.626424775E-2;-2.592483535E-2
1.930876496E1;-9.575098753E-2;5.968746915E-2;-1.140898466E-1
1.932892396E1;-1.213469058E-1;1.773928702E-1;-2.324070781E-1
1.934908196E1;-3.611274660E-1;2.408669740E-1;-3.744728863E-1
1.936924096E1;-3.756292760E-1;3.587228656E-1;-5.198033452E-1
1.938939896E1;-2.999541759E-1;3.484961092E-1;-5.094606280E-1
1.940955696E1;-3.543081880E-1;3.280001581E-1;-5.580784678E-1
1.942971596E1;-3.878653646E-1;2.668808997E-1;-4.366496801E-1
1.944987396E1;-4.662024379E-1;2.254025787E-1;-3.727551997E-1
1.947003296E1;-4.443020821E-1;2.402345389E-1;-3.534772396E-1
1.949019096E1;-4.299589396E-1;2.197391689E-1;-2.750929892E-1
1.951034996E1;-4.831818342E-1;1.899454594E-1;-1.627574563E-1
1.953050796E1;-4.201039970E-1;3.043376207E-1;-1.337431371E-1
1.955066817E1;-4.293603301E-1;4.114672840E-1;-2.874922007E-2
1.957082617E1;-3.197052777E-1;4.144222140E-1;8.704867959E-2
1.959098517E1;-2.370950133E-1;4.729997814E-1;1.109316424E-1
1.961114317E1;-1.894617081E-1;5.070425272E-1;1.155363172E-1
1.963130117E1;-9.433083981E-2;6.167818904E-1;1.103262082E-1
1.965146017E1;2.077417076E-2;6.917217374E-1;1.050305888E-1
1.967161817E1;8.032452315E-3;7.809401155E-1;1.168929338E-1
1.969177717E1;6.304206792E-3;8.562465310E-1;1.592878550E-1
1.971193517E1;1.494110227E-1;7.982966304E-1;4.169939756E-1
1.973209417E1;2.086794227E-1;8.014847636E-1;4.057522118E-1
1.975225217E1;3.127655387E-1;8.011198044E-1;4.380548000E-1
1.977241117E1;3.052206337E-1;6.772642732E-1;4.276690781E-1
1.979256917E1;3.801412880E-1;7.497768998E-1;2.959023416E-1
1.981272717E1;3.239646256E-1;9.435909986E-1;3.781506717E-1
1.983288617E1;3.757573664E-1;9.054710865E-1;4.267457724E-1
1.985304417E1;4.584058225E-1;7.782802582E-1;5.123202205E-1
1.987320317E1;4.232962430E-1;9.335937500E-1;5.705970526E-1
1.989336117E1;4.577425122E-1;9.353991747E-1;6.220902205E-1
1.991352017E1;6.529597044E-1;6.360228062E-1;6.692177057E-1
1.993367817E1;6.555393934E-1;3.947253823E-1;6.536715031E-1
1.995383717E1;7.446328402E-1;3.995597363E-1;5.213694572E-1
1.997399517E1;9.195715189E-1;4.278971553E-1;3.570353389E-1
1.999415317E1;8.822624683E-1;3.884304166E-1;3.375547230E-1
2.001431217E1;7.617409825E-1;3.146094084E-1;3.069194853E-1
2.003447017E1;7.294832468E-1;2.247398049E-1;1.607829928E-1
2.005462917E1;6.087027788E-1;2.441605181E-1;9.460575879E-2
2.007478717E1;4.413005412E-1;1.441913992E-1;1.619465500E-1
2.009494617E1;2.249492556E-1;-3.746597795E-3;1.636148542E-1
2.011510417E1;2.125514299E-2;-2.512865886E-2;5.920764804E-2
2.013526217E1;-1.288356930E-1;-1.073145866E-1;2.457522787E-2
2.015542117E1;-2.739894390E-1;-4.439207911E-1;-7.572081871E-3
2.017557917E1;-1.370308101E-1;-6.011978984E-1;7.532234490E-2
2.019573817E1;-1.279693097E-1;-4.880304039E-1;1.018140465E-1
2.021589617E1;-3.349197209E-1;-5.909330249E-1;2.162423134E-1
2.023605517E1;-2.490404844E-1;-4.500068724E-1;3.419578075E-1
2.025621317E1;-2.155120820E-1;-3.619823456E-1;3.462613821E-1
2.027637117E1;-1.659297496E-1;-2.152993232E-1;3.586408198E-1
2.029653017E1;-4.124449492E-1;3.141734377E-2;3.868966103E-1
2.031668817E1;-8.332138062E-1;-2.275806516E-1;4.559238851E-1
2.033684717E1;-7.248889208E-1;-1.600166708E-1;3.709201217E-1
2.035700517E1;-5.191682577E-1;-1.904679090E-1;4.169898033E-1
2.037716417E1;-4.780077338E-1;-4.122391939E-1;3.421345949E-1
2.039732217E1;-3.203888535E-1;-3.345639706E-1;3.478775024E-1
2.041748017E1;-2.323334217E-1;-5.446362495E-2;4.069995582E-1
2.043763917E1;-2.774955928E-1;-1.066233739E-1;3.844224215E-1
2.045779717E1;-3.263260424E-1;-2.047656178E-1;4.748677611E-1
2.047795617E1;-2.420628369E-1;-3.408072293E-1;3.274035454E-1
2.049811417E1;-2.437696308E-1;-3.681998253E-1;2.157552242E-1
2.051827217E1;-2.416420281E-1;-3.053151071E-1;2.414612472E-1
2.053843004E1;-2.549200952E-1;-3.366605341E-1;2.297968566E-1
2.055858804E1;-2.790977955E-1;-2.748064697E-1;1.658660769E-1
2.057874704E1;-2.870060503E-1;-2.591870725E-1;1.853483170E-1
2.059890504E1;-2.570989728E-1;-2.849909961E-1;1.945686042E-1
2.061906304E1;-2.378524095E-1;-3.528097868E-1;1.688895077E-1
2.063922204E1;-1.710168868E-1;-4.195625186E-1;1.308593154E-1
2.065938004E1;-9.881444275E-3;-4.488853514E-1;1.560783088E-1
2.067953904E1;5.119110271E-2;-5.713699460E-1;8.843388408E-2
2.069969704E1;-6.478273869E-2;-4.387105107E-1;-6.909672171E-2
2.071985604E1;-2.859438658E-1;-1.157427207E-1;-1.497365236E-1
2.074001404E1;-5.535383224E-1;2.366654277E-1;-1.287043393E-1
2.076017204E1;-6.085911393E-1;2.887755632E-1;-4.670631513E-2
2.078033104E1;-4.946065247E-1;9.994363785E-2;-1.186966449E-1
2.080048904E1;-4.677501023E-1;-8.481945097E-2;-2.528781891E-1
2.082064804E1;-3.337819874E-1;-1.414236724E-1;-3.703203797E-1
2.084080604E1;-1.987248063E-1;-1.088235453E-1;-4.325566292E-1
2.086096404E1;-1.664693803E-1;-3.879478201E-2;-4.179769754E-1
2.088112304E1;-1.168961748E-1;-6.883340888E-3;-4.990533888E-1
2.090128104E1;-1.856744587E-1;4.587865993E-2;-4.958880842E-1
2.092144004E1;-3.560121357E-1;5.957966298E-2;-3.863632083E-1
2.094159804E1;-2.526755035E-1;-3.084880114E-1;-1.757170856E-1
2.096175604E1;-2.527499795E-1;-2.105183005E-1;-1.057911366E-1
2.098191504E1;-2.855120599E-1;-2.432814091E-1;-1.453087926E-1
2.100207304E1;-1.210844442E-1;-3.700492382E-1;1.629762203E-1
2.102223204E1;-5.837855935E-1;-4.118824750E-2;1.772726029E-1
2.104239004E1;-7.774593830E-1;2.465352863E-1;4.132658541E-1
2.106254804E1;-6.259124875E-1;4.206214845E-1;1.018031165E-1
2.108270704E1;-6.014083028E-1;1.720262170E-1;5.098872352E-3
2.110286504E1;-8.893479705E-1;9.252288193E-2;1.109955981E-1
2.112302404E1;-8.658041358E-1;-9.582993388E-2;-9.840052575E-2
2.114318204E1;-6.927294731E-1;-1.727464497E-1;-3.898241520E-1
2.116334004E1;-6.139559150E-1;-2.956692576E-1;-3.231368363E-1
2.118349904E1;-7.022009492E-1;-2.589355707E-1;-3.435379267E-1
2.120365704E1;-5.994366407E-1;-1.768017262E-1;-6.035951376E-1
2.122381504E1;-1.204218790E-1;-3.389411867E-1;-7.170487046E-1
2.124397404E1;1.319911703E-2;-5.656030178E-1;-6.790214777E-1
2.126413204E1;-7.182041556E-2;-5.718837976E-1;-6.114323735E-1
2.128429104E1;1.137140840E-1;-5.422797799E-1;-6.706448197E-1
2.130444904E1;2.176252455E-1;-4.670657814E-1;-5.334674716E-1
2.132460704E1;6.119138375E-2;-2.450850457E-1;-4.429986179E-1
2.134476604E1;5.294206366E-2;-1.215330660E-1;-4.369914234E-1
2.136492404E1;2.027865499E-1;-9.354501218E-2;-4.511228800E-1
2.138508304E1;2.850399017E-1;3.865253180E-3;-3.270346522E-1
2.140524104E1;2.871927619E-1;7.788757235E-2;-2.386237085E-1
2.142539904E1;2.228506207E-1;1.040613353E-1;-1.406324059E-1
2.144555804E1;4.143183529E-1;1.462293118E-1;-1.349805146E-1
2.146571604E1;5.063168406E-1;1.425865442E-1;1.678695530E-2
2.148587404E1;3.852639198E-1;2.617163062E-1;1.162615120E-1
2.150603304E1;3.882809281E-1;3.589382172E-1;1.298562735E-1
2.152619104E1;3.978551328E-1;3.589769900E-1;1.570939571E-1
2.154635029E1;5.311079621E-1;3.547260761E-1;1.346763819E-1
2.156650829E1;6.428365707E-1;3.561848700E-1;2.150507420E-1
2.158666629E1;5.884458423E-1;4.088272750E-1;2.178112566E-1
2.160682529E1;6.787328124E-1;4.240386486E-1;2.872882783E-1
2.162698329E1;7.624164820E-1;4.515926838E-1;3.514218926E-1
2.164714129E1;9.422290921E-1;3.876339495E-1;3.922482431E-1
2.166730029E1;8.867746592E-1;5.747398734E-1;3.493940532E-1
2.168745829E1;8.658964634E-1;6.454223394E-1;2.697178423E-1
2.170761729E1;8.919181824E-1;7.108608484E-1;2.148557156E-1
2.172777529E1;7.768409848E-1;6.904897690E-1;2.644316554E-1
2.174793329E1;5.722449422E-1;6.785970926E-1;2.897960544E-1
2.176809229E1;4.441999793E-1;6.893215179E-1;1.970524490E-1
2.178825029E1;3.212526441E-1;5.181730390E-1;2.275739759E-1
2.180840829E1;2.760486007E-1;4.753797948E-1;1.812181771E-1
2.182856729E1;3.540394902E-1;5.153948665E-1;9.862223268E-2
2.184872529E1;2.966762483E-1;4.194814265E-1;3.889752552E-4
2.186888429E1;1.241514087E-1;6.206365228E-1;-9.612231702E-2
2.188904229E1;2.359087206E-2;4.470309615E-1;-1.472353190E-1
2.190920029E1;-7.292192429E-2;2.314255983E-1;-8.035012335E-2
2.192935929E1;1.451713890E-1;3.950927556E-1;-2.320353836E-1
2.194951729E1;3.888463974E-1;4.890521169E-1;-2.278739512E-1
2.196967529E1;2.983617187E-1;3.490207791E-1;-1.239880621E-1
2.198983429E1;-1.367256884E-2;2.635843754E-1;1.076992601E-1
2.200999229E1;-3.168957531E-1;-1.427812725E-1;5.639467388E-2
2.203015029E1;-3.867488205E-1;-5.485813022E-1;-9.566502646E-3
2.205030929E1;-3.569738865E-1;-4.340682626E-1;1.612739414E-1
2.207046729E1;-3.554352522E-1;-3.687793314E-1;2.723264396E-1
2.209062529E1;-3.784073293E-1;-3.839837611E-1;2.816324532E-1
2.211078429E1;-3.677487373E-1;-3.008230329E-1;3.071778417E-1
2.213094229E1;-1.856124699E-1;-2.867275774E-1;2.840391695E-1
2.215110129E1;-6.250992417E-2;-3.483250439E-1;3.165568411E-1
2.217125929E1;4.474075884E-2;-3.863185346E-1;3.794054687E-1
2.219141729E1;-3.582968563E-2;-2.418057323E-1;4.127107859E-1
2.221157629E1;-9.509626031E-2;-1.892615557E-1;3.220148087E-1
2.223173429E1;-2.023006082E-1;-1.128292680E-1;2.298152000E-1
2.225189229E1;-2.901980281E-1;7.986577600E-2;3.507532477E-1
2.227205129E1;-2.757318020E-1;6.549765170E-2;3.573782146E-1
2.229220929E1;-2.869641483E-1;1.760129482E-1;4.131267965E-1
2.231236729E1;-3.163885176E-1;2.546361983E-1;5.607508421E-1
2.233252629E1;-2.204467952E-1;1.742923707E-1;6.037017703E-1
2.235268429E1;-2.184900194E-1;8.227807283E-2;5.062854290E-1
2.237284229E1;-3.270741701E-1;1.487660501E-2;3.901228011E-1
2.239300129E1;-5.129632950E-1;-5.683419108E-2;1.891583204E-1
2.241315929E1;-6.411811709E-1;-1.491919905E-1;2.023049444E-2
2.243331729E1;-7.333841324E-1;-1.649706513E-1;2.954425057E-3
2.245347629E1;-7.320777774E-1;-1.170163676E-1;-5.525244772E-2
2.247363429E1;-6.548250318E-1;-1.151113957E-1;-5.342261121E-2
2.249379329E1;-7.201685309E-1;-4.152532816E-1;-9.386980534E-2
2.251395129E1;-8.165903091E-1;-4.487143457E-1;-1.090291739E-1
2.253410929E1;-7.210682631E-1;-3.786085546E-1;-2.040820196E-2
2.255426829E1;-5.256275535E-1;-3.401622772E-1;-2.187266648E-1
2.257442629E1;-2.849908471E-1;-2.468474358E-1;-2.384449989E-1
2.259458429E1;-1.979329735E-1;-2.941944301E-1;-3.745582402E-1
2.261474329E1;-1.025689021E-1;-3.061442971E-1;-4.245825112E-1
2.263490129E1;-1.311906334E-2;-3.825811744E-1;-3.773964047E-1
2.265505929E1;6.956909597E-2;-3.343642354E-1;-4.122575521E-1
2.267521829E1;1.050988734E-1;-2.895223200E-1;-3.256119192E-1
2.269537629E1;1.149572730E-1;-3.480550945E-1;-3.349285126E-1
2.271553429E1;1.945348829E-1;-3.924472034E-1;-3.047076762E-1
2.273569329E1;4.626726508E-1;-3.091923892E-1;-1.293156743E-1
2.275585129E1;2.521269917E-1;-1.532224268E-1;-3.567751050E-1
2.277600929E1;2.084897608E-1;-2.894615754E-2;-2.997106612E-1
2.279616829E1;1.199607030E-1;7.294225693E-2;-3.150628209E-1
2.281632629E1;-5.662318319E-2;3.007277548E-1;-3.455572128E-1
2.283648429E1;-1.077542156E-1;3.669544160E-1;-3.158143759E-1
2.285664329E1;-5.888766795E-2;3.948844969E-1;-4.030883312E-1
2.287680129E1;-9.763093665E-3;2.333700955E-1;-3.991687000E-1
2.289695929E1;2.263143472E-2;7.085290551E-2;-2.975013256E-1
2.291711829E1;-1.179274917E-1;1.205859482E-1;-3.645560741E-1
2.293727629E1;1.118958145E-1;1.273372173E-1;-4.084942937E-1
2.295743429E1;4.430115968E-2;1.778040677E-1;-3.534763157E-1
2.297759329E1;8.482786268E-2;1.977978647E-1;-3.522020280E-1
2.299775129E1;3.056242466E-1;2.038765997E-1;-3.882544935E-1
2.301790929E1;4.777865410E-1;1.989555508E-1;-3.708172739E-1
2.303806829E1;3.617414236E-1;2.906114459E-1;-3.263618052E-1
2.305822629E1;1.809016168E-1;4.018842876E-1;-2.994040251E-1
2.307838429E1;2.092220932E-1;4.746572077E-1;-2.168633044E-1
2.309854229E1;2.393857986E-1;4.054400921E-1;-2.127423510E-2
2.311870129E1;1.391878277E-1;4.095250070E-1;1.597138494E-1
2.313885929E1;1.321169734E-1;4.028743804E-1;1.587309688E-1
2.315901729E1;2.359153926E-1;4.242878556E-1;1.581189334E-1
2.317917629E1;1.721370965E-1;4.208749533E-1;2.842185795E-1
2.319933429E1;1.422031671E-1;4.064431190E-1;3.487876356E-1
2.321949229E1;2.288857549E-1;5.193120837E-1;3.659232855E-1
2.323965129E1;3.242396116E-1;5.928717256E-1;4.537476003E-1
2.325980929E1;4.465804100E-1;6.168975234E-1;5.438323021E-1
2.327996729E1;4.803645611E-1;6.744923592E-1;5.999853015E-1
2.330012629E1;4.403765202E-1;8.627200127E-1;5.483298302E-1
2.332028429E1;5.160090923E-1;8.917065263E-1;5.315314531E-1
2.334044229E1;4.852061272E-1;7.223869562E-1;5.149039626E-1
2.336060129E1;5.066197515E-1;6.102171540E-1;4.326963425E-1
2.338075929E1;4.591755271E-1;5.715271831E-1;4.861702621E-1
2.340091729E1;4.289129078E-1;6.320940256E-1;3.967841268E-1
2.342107629E1;4.195889533E-1;7.390227318E-1;3.900266886E-1
2.344123429E1;3.036519885E-1;6.242865324E-1;4.656944275E-1
2.346139229E1;3.182389140E-1;4.544356763E-1;2.648276389E-1
2.348155029E1;3.027142286E-1;2.990853786E-1;1.491425037E-1
2.350170929E1;1.393080652E-1;2.212803215E-1;1.354400069E-1
2.352186729E1;-1.267449651E-2;2.238807380E-1;1.087050289E-1
2.354202479E1;-1.458939165E-1;1.787946820E-1;7.122188061E-2
2.356218379E1;-1.181092039E-1;2.321259826E-1;5.052943155E-2
2.358234179E1;-4.928737879E-2;3.107480109E-1;4.356957227E-2
2.360249979E1;-4.596140236E-2;1.966546029E-1;1.473879069E-1
2.362265879E1;-2.996592782E-2;6.109571457E-2;1.522023678E-1
2.364281679E1;-1.488394141E-1;-2.100432068E-1;7.965095341E-2
2.366297479E1;-1.930298954E-1;-3.556389511E-1;1.723456755E-2
2.368313379E1;-4.106684327E-1;-4.137025476E-1;1.632338017E-2
2.370329179E1;-4.374255240E-1;-3.886902332E-1;2.116899937E-1
2.372344979E1;-1.991952211E-1;-8.811810613E-2;2.196300626E-1
2.374360779E1;-1.247599721E-1;3.236814588E-2;2.144910544E-1
2.376376679E1;-2.575264275E-1;-3.851487115E-2;2.588177919E-1
2.378392479E1;-3.659561574E-1;8.431594074E-2;3.178678155E-1
2.380408279E1;-4.880056679E-1;1.493163854E-1;2.702239454E-1
2.382424179E1;-3.010384738E-1;1.776568443E-1;3.138614595E-1
2.384439979E1;-1.838727891E-1;1.316437125E-1;2.921455801E-1
2.386455779E1;-1.894978881E-1;1.430878341E-1;4.918548465E-1
2.388471679E1;-1.875536144E-1;-3.437997028E-2;3.929028809E-1
2.390487479E1;-2.835737765E-1;-1.485982090E-1;4.417042434E-1
2.392503279E1;-3.304359615E-1;-2.031974792E-1;4.549983442E-1
2.394519079E1;-3.066089749E-1;-2.096421719E-1;3.386118412E-1
2.396534979E1;-2.861258090E-1;-1.092977226E-1;1.228121743E-1
2.398550779E1;-6.184220687E-2;-1.717890054E-1;1.179260463E-1
2.400566579E1;3.706611227E-3;-9.647769481E-2;2.313813418E-1
2.402582479E1;-2.528375089E-1;-2.333027497E-2;2.483064085E-1
2.404598279E1;-4.217220247E-1;-1.633183211E-1;2.686361969E-1
2.406614079E1;-2.842958272E-1;-4.291523695E-1;2.513433397E-1
2.408629879E1;-7.666166872E-2;-5.138550997E-1;2.091307044E-1
2.410645779E1;-8.982911706E-3;-6.445554495E-1;1.431928426E-1
2.412661579E1;1.073996648E-1;-7.522283196E-1;8.030951023E-2
2.414677379E1;2.002163231E-1;-8.250671029E-1;-1.087462902E-2
2.416693279E1;2.044330686E-1;-7.976301312E-1;-1.158832163E-1
2.418709079E1;1.935597062E-1;-7.799894810E-1;-2.041541487E-1
2.420724879E1;1.579146087E-1;-8.394626379E-1;-1.518102437E-1
2.422740679E1;1.563953012E-1;-6.784825921E-1;-1.200066581E-1
2.424756579E1;1.258586645E-1;-7.834206820E-1;5.501390994E-2
2.426772379E1;-1.216818169E-1;-9.107705355E-1;2.605552971E-1
2.428788179E1;-8.506851643E-2;-5.340636969E-1;3.532916009E-1
2.430804079E1;-3.849852085E-2;-4.605493248E-1;1.107941568E-1
2.432819879E1;-1.704728976E-2;-5.318772793E-1;-6.869890541E-2
2.434835679E1;1.106150076E-1;-6.422322392E-1;-4.690427333E-2
2.436851479E1;8.878199756E-2;-4.925309718E-1;-8.989366889E-2
2.438867379E1;1.936997324E-1;-3.431172073E-1;-1.089768559E-1
2.440883179E1;2.561833858E-1;-2.842609584E-1;-1.352451146E-1
2.442898979E1;3.707703352E-1;-2.535541356E-1;-2.388114929E-1
2.444914879E1;4.990304410E-1;-4.310896993E-1;-4.341272116E-1
2.446930679E1;4.061146379E-1;-4.208152294E-1;-4.309736192E-1
2.448946479E1;4.088200331E-1;-3.239467144E-1;-3.974829614E-1
2.450962279E1;3.903097510E-1;-2.659061551E-1;-3.659851551E-1
2.452978179E1;2.474251688E-1;-1.012256742E-1;-2.332174778E-1
2.454994042E1;1.480923593E-1;4.890769348E-2;-2.719063163E-1
2.457009842E1;-1.459949911E-1;1.895033121E-1;-3.467839360E-1
2.459025642E1;-2.241930515E-1;2.093592733E-1;-3.713284135E-1
2.461041542E1;-7.319699973E-2;2.394502610E-1;-3.946118951E-1
2.463057342E1;1.454829872E-1;9.263439476E-2;-4.711199403E-1
2.465073142E1;1.064527109E-1;3.986120969E-2;-3.986883759E-1
2.467088942E1;1.460278183E-1;1.288684607E-1;-2.601591647E-1
2.469104842E1;3.376933634E-1;8.910027891E-2;-2.089226544E-1
2.471120642E1;4.135979116E-1;-6.431321055E-2;-2.008182555E-1
2.473136442E1;5.051461607E-2;-1.061780378E-2;-1.325471699E-1
2.475152342E1;-2.933312058E-1;4.363040626E-1;1.345677301E-4
2.477168142E1;-1.900281608E-1;4.832378328E-1;7.336319238E-2
2.479183942E1;-2.231426165E-2;3.625388443E-1;4.346229136E-2
2.481199742E1;1.625388861E-1;3.791834712E-1;-3.527148068E-2
2.483215642E1;3.364463449E-1;5.294187069E-1;-4.323430732E-2
2.485231442E1;5.346330404E-1;4.740757942E-1;1.120443828E-2
2.487247242E1;4.518126845E-1;3.377964199E-1;9.221413732E-2
2.489263042E1;2.015065253E-1;4.223338664E-1;7.219305634E-2
2.491278942E1;-3.967535496E-2;4.983026683E-1;1.255547106E-1
2.493294742E1;-1.741651446E-1;6.085096598E-1;6.358636916E-2
2.495310542E1;-1.263003200E-1;7.615367770E-1;-7.925005257E-2
2.497326342E1;-1.004051119E-1;8.510177135E-1;-7.592165470E-2
2.499342242E1;-1.331187133E-2;1.228786230E0;-1.788543761E-1
2.501358042E1;-5.866150931E-2;1.752314806E0;-1.146501601E-1
2.503373842E1;-3.195688725E-1;1.380608797E0;-6.936558336E-2
2.505389642E1;-3.712828457E-1;9.289933443E-1;-9.787739813E-2
2.507405542E1;-1.707953364E-1;6.464326978E-1;-2.191891074E-1
2.509421342E1;-2.612955123E-2;7.850815058E-1;-2.638256550E-1
2.511437142E1;4.523042589E-2;9.846078157E-1;-1.882913858E-1
2.513452942E1;-1.982370764E-1;1.093735933E0;-8.734280616E-2
2.515468842E1;-3.931504786E-1;9.370781779E-1;-5.070638284E-2
2.517484642E1;-3.445537686E-1;9.069251418E-1;-2.908434346E-2
2.519500442E1;-1.737803072E-1;5.447824597E-1;-8.271791041E-2
2.521516242E1;-4.122855514E-2;1.346192211E-1;-1.024828758E-2
2.523532142E1;6.028922275E-2;1.570005715E-2;3.461785847E-3
2.525547942E1;1.642715037E-1;1.301521156E-2;2.893949859E-2
2.527563742E1;2.421487272E-1;8.314712904E-3;7.984302193E-2
2.529579542E1;2.674974203E-1;5.515829101E-2;1.297058463E-1
2.531595442E1;2.004323304E-1;4.056072980E-2;1.800045520E-1
2.533611242E1;1.210226119E-1;-2.624166012E-2;2.295708805E-1
2.535627042E1;-2.932156250E-2;7.952750660E-3;3.011646569E-1
2.537642842E1;-1.608756930E-2;9.901916236E-2;3.448809981E-1
2.539658742E1;1.270272071E-3;7.695095241E-2;3.166806698E-1
2.541674542E1;1.691245660E-2;-1.156972572E-1;3.374173343E-1
2.543690342E1;9.875426441E-2;-2.120932490E-1;2.958149910E-1
2.545706142E1;1.360816509E-2;-3.058614135E-1;2.578362525E-1
2.547722042E1;-2.807019055E-1;-2.422850132E-1;2.589052022E-1
2.549737842E1;-5.508964062E-1;-2.579558492E-1;2.638636231E-1
2.551753642E1;-5.667331219E-1;-2.535386086E-1;2.348975390E-1
2.553769342E1;-5.508199930E-1;-3.876564801E-1;1.483341306E-1
2.555785242E1;-4.665467143E-1;-4.992409945E-1;1.225988045E-1
2.557801042E1;-5.238742828E-1;-7.491872907E-1;1.118347272E-1
2.559816842E1;-5.534710288E-1;-9.957584143E-1;7.353354990E-2
2.561832642E1;-4.870663285E-1;-1.182194471E0;8.129550517E-2
2.563848542E1;-3.268038034E-1;-1.204831362E0;3.119936213E-2
2.565864342E1;-1.778302938E-1;-1.030692935E0;-1.045984849E-1
2.567880142E1;1.348140370E-2;-1.154844046E0;-3.660144657E-2
2.569895942E1;-1.051535830E-1;-1.162604451E0;-1.578887850E-1
2.571911742E1;-5.689997971E-2;-9.398896694E-1;-1.337404847E-1
2.573927642E1;1.177223772E-1;-1.056419134E0;-1.365955919E-3
2.575943442E1;2.941986918E-1;-1.066168189E0;-8.270361274E-2
2.577959242E1;4.709846377E-1;-9.818152189E-1;-3.997092322E-2
2.579975042E1;3.901156485E-1;-1.183632135E0;1.204896718E-1
2.581990942E1;3.509313464E-1;-8.342670798E-1;1.613692790E-1
2.584006742E1;3.830347955E-1;-4.908559620E-1;3.847189620E-2
2.586022542E1;3.069310188E-1;-3.992102444E-1;-1.333893239E-1
2.588038342E1;2.593138814E-1;-2.240317315E-1;-1.734343916E-1
2.590054242E1;7.058872581E-1;-3.450042903E-1;-1.723036170E-2
2.592070042E1;9.925365448E-1;-5.382403731E-1;-9.678944945E-2
2.594085842E1;7.792817950E-1;-5.509178042E-1;-9.790365398E-2
2.596101642E1;8.358461857E-1;-1.206106395E-1;-4.480643198E-2
2.598117442E1;1.067723155E0;-3.089302778E-1;-2.206158042E-1
2.600133342E1;7.494747043E-1;-2.520534694E-1;-3.885023594E-1
2.602149142E1;4.771795571E-1;8.960866183E-2;-3.238393962E-1
2.604164942E1;3.919683695E-1;-3.067687154E-3;-4.275035262E-1
2.606180742E1;2.625047565E-1;2.821025997E-2;-4.126003385E-1
2.608196642E1;1.273752749E-1;9.203128517E-2;-3.213224709E-1
2.610212442E1;2.201017588E-1;2.879679948E-2;-3.024938405E-1
2.612228242E1;3.295572102E-1;-1.963494718E-2;-2.517862916E-1
2.614244042E1;2.516317666E-1;5.393381417E-2;-1.938068867E-1
2.616259842E1;8.279848099E-2;1.539556384E-1;-2.474029511E-1
2.618275742E1;1.950334571E-2;1.332350820E-1;-1.840794533E-1
2.620291542E1;9.793593735E-2;6.433866173E-2;8.956672624E-3
2.622307342E1;-1.395855397E-1;1.874090433E-1;1.113320421E-2
2.624323142E1;-1.549422294E-1;1.726302803E-1;1.305937320E-1
2.626338942E1;-2.432510406E-1;2.218548208E-1;1.999594867E-1
2.628354842E1;-1.510886848E-1;3.006793261E-1;2.172894478E-1
2.630370642E1;-3.476697020E-3;1.700972617E-1;2.484448850E-1
2.632386442E1;-1.371311694E-1;1.038419604E-1;2.117870748E-1
2.634402242E1;-1.168725491E-1;1.305598915E-1;1.805885285E-1
2.636418142E1;-2.068725824E-1;2.188844532E-1;1.565978080E-1
2.638433942E1;-8.998192102E-2;2.840348184E-1;1.453903615E-1
2.640449742E1;-1.444282830E-1;1.575156152E-1;2.872675657E-1
2.642465542E1;-3.275400400E-1;3.865836859E-1;2.429144830E-1
2.644481342E1;-3.899527490E-1;7.982248664E-1;-5.813625176E-3
2.646497242E1;-3.522765934E-1;9.750179052E-1;-4.124503136E-1
2.648513042E1;-2.586024702E-1;7.472901940E-1;-8.951366544E-1
2.650528842E1;-2.334278077E-1;4.903291762E-1;-1.331393719E0
2.652544642E1;-2.190593183E-1;-9.138677269E-3;-1.589087129E0
2.654560454E1;-2.266438901E-1;-2.949646115E-1;-1.668204069E0
2.656576354E1;-3.526883125E-1;-3.926098347E-2;-1.588629842E0
2.658592154E1;-7.058945894E-1;1.579142809E-1;-1.241194844E0
2.660607954E1;-1.005544186E0;2.893667221E-1;-8.265121579E-1
2.662623754E1;-6.673115492E-1;4.356577396E-1;-5.779010653E-1
2.664639554E1;-2.632844746E-1;5.707948282E-2;-3.662326932E-1
2.666655454E1;-2.405267954E-1;-1.516685188E-1;8.346391469E-2
2.668671254E1;-2.095714360E-1;-4.152449369E-1;9.296137840E-2
2.670687054E1;-6.903152168E-2;-4.718126655E-1;3.147220984E-2
2.672702854E1;-1.611089334E-2;-4.701992869E-1;-9.951293468E-3
2.674718654E1;-3.413686762E-3;-3.400710225E-1;-2.269700766E-1
2.676734554E1;-2.281182259E-1;5.354757607E-2;-2.622001767E-1
2.678750354E1;-2.156620324E-1;-1.626553237E-1;3.461381197E-1
2.680766154E1;-5.383089557E-2;9.105900303E-3;1.494337469E-1
2.682781954E1;4.798659682E-2;2.970333993E-1;6.097760051E-2
2.684797754E1;8.103738725E-2;6.387295723E-1;9.660135210E-2
2.686813654E1;3.723691031E-2;5.483382940E-1;2.471509874E-1
2.688829454E1;-3.516089320E-1;4.139878452E-1;4.018504620E-1
2.690845254E1;-6.486787796E-1;3.823934793E-1;5.521419644E-1
2.692861054E1;-5.049379468E-1;-4.297106341E-2;3.888909221E-1
2.694876854E1;-1.635266095E-1;-5.745664611E-2;2.685861588E-1
2.696892754E1;2.053782530E-2;-1.424630582E-1;2.187949717E-1
2.698908554E1;-2.930190228E-2;-1.551745981E-1;2.336921692E-1
2.700924354E1;-1.661203653E-1;-2.458093315E-1;2.541557252E-1
2.702940154E1;-2.595964670E-1;-2.136647403E-1;2.589050829E-1
2.704955954E1;-3.784513175E-1;-4.105381072E-1;2.038137019E-1
2.706971854E1;-3.896563649E-1;-6.928416491E-1;1.358709782E-1
2.708987654E1;-4.064586163E-1;-8.759801388E-1;1.286982000E-1
2.711003454E1;-3.734477758E-1;-7.013270259E-1;8.715792000E-2
2.713019254E1;-3.737035990E-1;-3.678738177E-1;2.175547034E-1
2.715035054E1;-3.637587130E-1;-3.636573553E-1;2.745752335E-1
2.717050854E1;-2.159012258E-1;-3.134395480E-1;1.466719955E-1
2.719066754E1;-1.352118328E-2;-3.273327649E-1;1.743003130E-1
2.721082554E1;1.211383641E-1;-3.294863105E-1;-1.121508181E-1
2.723098354E1;3.264914155E-1;-4.507712424E-1;-6.370042264E-2
2.725114154E1;3.494610190E-1;-4.048971832E-1;-1.719607972E-2
2.727129954E1;1.782289147E-1;-3.454144895E-1;-9.397752583E-2
2.729145854E1;2.970557511E-1;-1.354611069E-1;-1.032905057E-1
2.731161654E1;5.330142379E-1;-3.207448721E-1;-5.488882959E-2
2.733177454E1;3.559101224E-1;-3.512647450E-1;-2.585013211E-1
2.735193254E1;4.446626604E-1;-1.411612928E-1;-3.342812955E-1
2.737209054E1;9.400426745E-1;-3.403591812E-1;-3.430554569E-1
2.739224854E1;6.385573745E-1;-5.013455078E-2;-5.060802698E-1
2.741240754E1;1.130285144E0;7.752057910E-2;-3.200471997E-1
2.743256554E1;8.804548979E-1;-9.824112058E-2;-2.430812567E-1
2.745272354E1;3.415130973E-1;1.914917827E-1;-3.750483096E-1
2.747288154E1;9.172029495E-1;1.210934743E-1;-1.351357251E-1
2.749303954E1;4.126003981E-1;2.669717968E-1;-2.017021924E-1
2.751319754E1;4.968041778E-1;3.347525001E-1;-1.914665997E-1
2.753335654E1;8.921796679E-1;1.528171748E-1;-2.940253019E-1
2.755351479E1;2.955959737E-1;-2.813092247E-2;-3.119990230E-1
2.757367279E1;6.377764512E-4;-6.858658791E-2;-1.859283745E-1
2.759383079E1;7.524378598E-2;9.214746207E-2;-2.498862147E-1
2.761398879E1;2.737763226E-1;1.573260874E-1;-1.383526921E-1
2.763414679E1;1.846150756E-1;3.280646205E-1;-2.279264331E-1
2.765430579E1;-1.277793795E-1;5.274576545E-1;-3.532765210E-1
2.767446379E1;-1.021500587E0;7.093539238E-1;-3.668198586E-1
2.769462179E1;-1.175381303E0;1.071703076E0;-2.121484429E-1
2.771477979E1;-7.875782251E-1;3.453100324E-1;3.650563955E-1
2.773493779E1;-9.671922326E-1;1.386369169E-1;2.842846513E-1
2.775509579E1;-3.069904745E-1;3.849865198E-1;4.272032976E-1
2.777525479E1;-2.239910811E-1;1.659964621E-1;3.122656047E-1
2.779541279E1;-2.048925459E-1;3.951071501E-1;3.533739150E-1
2.781557079E1;-3.962833434E-3;1.374934912E-1;6.498168707E-1
2.783572879E1;2.932683527E-1;4.859086871E-2;5.887485743E-1
2.785588679E1;5.758488774E-1;1.257033646E-1;5.125947595E-1
2.787604479E1;8.719265461E-1;2.015743107E-1;2.289361656E-1
2.789620379E1;9.916339517E-1;1.608034819E-1;4.730071500E-2
2.791636179E1;8.308490515E-1;1.906626821E-1;-2.626644969E-1
2.793651979E1;7.672113180E-1;5.932983160E-1;-6.403383017E-1
2.795667779E1;6.054065228E-1;9.634154439E-1;-1.127310634E0
2.797683579E1;2.922777236E-1;1.782226443E0;-1.604201555E0
2.799699379E1;2.913432717E-1;2.251988411E0;-1.488606095E0
2.801715279E1;5.307959914E-1;1.705574512E0;-1.057274222E0
2.803731079E1;-6.274590492E-1;1.755064964E0;2.607613206E-1
2.805746879E1;-1.532826424E0;1.018269062E0;1.155875802E0
2.807762679E1;-1.893294811E0;1.185063362E0;8.444687128E-1
2.809778479E1;-1.806130290E0;1.194666862E0;-1.456805617E-1
2.811794279E1;-8.233491778E-1;7.962506413E-1;-2.008669674E-1
2.813810179E1;-5.825235248E-1;3.909668922E-1;-1.771848649E-1
2.815825979E1;-3.253033161E-1;-2.408928871E-1;1.946699619E-1
2.817841779E1;-2.191146016E-1;-1.609460860E-1;4.310478270E-2
2.819857579E1;-4.609916806E-1;3.227165341E-2;-2.702147067E-1
2.821873379E1;-4.072015285E-1;-2.024194449E-1;-3.423441350E-1
2.823889179E1;-2.567289472E-1;-2.918920815E-1;-2.615050972E-1
2.825904979E1;-4.317587018E-1;-3.387644291E-1;-3.099800833E-2
2.827920879E1;-6.262282133E-1;-3.208780587E-1;1.351262182E-1
2.829936679E1;-5.669474602E-1;-2.167309076E-1;2.299732566E-1
2.831952479E1;-3.030687869E-1;2.027729452E-1;1.903238297E-1
2.833968279E1;-1.836518645E-1;3.582918048E-1;1.164588481E-1
2.835984079E1;1.243615821E-1;2.173073292E-1;1.587013751E-1
2.837999879E1;3.547187150E-1;6.576389819E-2;6.495525688E-2
2.840015779E1;2.690559030E-1;-3.554914296E-1;-4.912194237E-2
2.842031579E1;9.645846486E-2;-5.745388269E-1;-6.917318795E-3
2.844047379E1;-2.122902721E-1;-8.487796187E-1;-5.266635120E-2
2.846063179E1;-4.486197233E-1;-6.301439404E-1;-7.004375011E-2
2.848078979E1;-5.028645992E-1;-6.067875028E-1;1.491317451E-1
2.850094779E1;-4.623260796E-1;-3.946312368E-1;1.965512931E-1
2.852110579E1;-3.085174561E-1;-3.010547459E-1;3.956858516E-1
2.854126492E1;-1.944790632E-1;-4.061897397E-1;4.551804662E-1
2.856142292E1;-7.492116839E-2;-5.808374286E-1;4.955657423E-1
2.858158092E1;9.036421776E-3;-5.743709207E-1;4.251300097E-1
2.860173892E1;1.824545562E-1;-4.351953566E-1;3.573133647E-1
2.862189692E1;1.309509724E-1;-4.126457572E-1;1.815017909E-1
2.864205492E1;7.031436265E-2;-4.656456709E-1;1.987378299E-2
2.866221292E1;-1.168634593E-1;-5.042217970E-1;1.201758981E-1
2.868237192E1;-2.719419897E-1;-4.699776769E-1;1.632150561E-1
2.870252992E1;-2.647599876E-1;-3.708761632E-1;8.408973366E-2
2.872268792E1;-1.845689304E-2;-3.865311146E-1;1.300962567E-1
2.874284592E1;1.051535159E-1;-5.207462907E-1;1.447248310E-1
2.876300392E1;1.359241158E-1;-5.539726615E-1;2.409052849E-2
2.878316192E1;1.831755191E-1;-6.079009771E-1;3.888458759E-2
2.880331992E1;6.892334670E-2;-7.787904739E-1;1.057412773E-1
2.882347792E1;2.953556776E-1;-6.974165440E-1;3.913009763E-1
2.884363692E1;5.903563499E-1;-6.960940957E-1;1.858649254E-1
2.886379492E1;9.275463820E-1;-5.936612487E-1;1.703236252E-2
2.888395292E1;1.277364850E0;-4.991696775E-1;-5.121127516E-2
2.890411092E1;1.307464957E0;-6.542843580E-1;-1.608060747E-1
2.892426892E1;1.105692267E0;-5.629544854E-1;-1.230668724E-1
2.894442692E1;8.373106718E-1;-2.394049913E-1;-2.627756894E-1
2.896458492E1;5.611307025E-1;-1.455689371E-1;-2.688567936E-1
2.898474392E1;1.901479363E-1;-7.134795189E-2;-4.213003814E-1
2.900490192E1;-2.274708264E-2;-3.062419780E-2;-3.353304863E-1
2.902505992E1;-2.390857786E-1;-3.590992838E-2;-2.278120965E-1
2.904521792E1;-7.765007019E-2;-1.502515376E-1;-1.684925407E-1
2.906537592E1;-1.963120550E-1;-1.407390833E-1;-1.815298498E-1
2.908553392E1;-5.627392530E-1;-1.341874432E-2;-1.975021511E-1
2.910569192E1;-4.578390718E-1;1.709609032E-1;-1.123147756E-1
2.912584992E1;-2.218813300E-1;3.266011775E-1;-2.325393707E-1
2.914600792E1;-4.118436277E-1;1.722573638E-1;-3.960183635E-2
2.916616692E1;-4.681664705E-1;1.360518020E-2;1.157743931E-1
2.918632492E1;-2.357433587E-1;1.735981740E-2;6.756818295E-2
2.920648292E1;1.835335940E-1;-1.543932827E-3;1.371984780E-1
2.922664092E1;1.947192252E-1;4.608393461E-2;3.069210947E-1
2.924679892E1;5.977072753E-3;2.837320268E-1;3.373966515E-1
2.926695692E1;3.776956722E-2;2.523284554E-1;2.634670734E-1
2.928711492E1;-8.561196178E-2;2.591017783E-1;2.752051950E-1
2.930727292E1;-2.533673048E-1;3.554774821E-1;2.357866466E-1
2.932743192E1;-3.043931127E-1;4.120262265E-1;2.692946196E-1
2.934758992E1;-3.367993236E-1;3.173884451E-1;2.356081456E-1
2.936774792E1;-3.981196880E-1;2.629337311E-1;2.835267782E-1
2.938790592E1;-2.186826617E-1;2.232170701E-1;2.654347420E-1
2.940806392E1;1.179389283E-1;1.359431744E-1;2.715843320E-1
2.942822192E1;1.218708158E-1;1.544140875E-1;2.772535384E-1
2.944837992E1;1.668515950E-1;4.091119766E-1;2.272716612E-1
2.946853792E1;2.424969226E-1;4.689301252E-1;1.564244628E-1
2.948869692E1;3.151229024E-1;3.733281493E-1;1.045132577E-1
2.950885492E1;6.581111252E-2;3.710187376E-1;6.317309290E-2
2.952901292E1;-4.940507188E-2;3.462454975E-1;-5.657317489E-2
2.954917092E1;1.627278626E-1;2.525791228E-1;-2.525509000E-1
2.956932892E1;4.253312647E-1;3.948682547E-1;-3.747683465E-1
2.958948692E1;3.777844608E-1;1.156287417E-1;-3.226487637E-1
2.960964492E1;2.154563665E-1;6.502941251E-2;-3.505304456E-1
2.962980292E1;5.767264962E-2;2.087690085E-1;-2.747004032E-1
2.964996092E1;-9.663198143E-2;2.275650352E-1;-2.654191256E-1
2.967011992E1;-3.219628474E-3;3.729995489E-1;-2.339327484E-1
2.969027792E1;-1.068004593E-1;4.880620539E-2;9.161755443E-2
2.971043592E1;-2.793022990E-1;-2.845436931E-1;-3.668704629E-2
2.973059392E1;-1.616277248E-1;-1.634595841E-1;3.470381349E-2
2.975075192E1;-2.064135373E-1;-1.123994961E-1;1.443011463E-1
2.977090992E1;-2.601064444E-1;-2.092339844E-1;1.156920493E-1
2.979106792E1;-8.539999276E-2;-3.114460409E-1;7.905198634E-2
2.981122592E1;1.977675781E-2;-3.101449907E-1;1.993844509E-1
2.983138392E1;-2.855220437E-2;-4.599654377E-1;2.305058092E-1
2.985154292E1;-2.132273652E-2;-3.760551214E-1;1.531664282E-1
2.987170092E1;6.139744818E-2;-1.650849432E-1;2.273408622E-1
2.989185892E1;5.219542235E-2;3.204846382E-2;3.298405111E-1
2.991201692E1;-1.591640115E-1;6.968978792E-3;3.333288431E-1
2.993217492E1;-1.248954162E-1;-2.581635714E-1;1.906113625E-1
2.995233292E1;1.433064695E-2;-3.395812213E-1;1.371172369E-1
2.997249092E1;-6.864939630E-2;-3.000185788E-1;1.454388201E-1
2.999264892E1;-3.207327425E-1;-3.879268467E-1;5.719677079E-3
3.001280692E1;-4.194704890E-1;-4.212011099E-1;-1.619739458E-2
3.003296492E1;-4.679052234E-1;-5.113641024E-1;8.170835674E-3
3.005312392E1;-4.431553185E-1;-5.736145973E-1;3.123223595E-2
3.007328192E1;-4.176208675E-1;-6.355494261E-1;-3.135775682E-3
3.009343992E1;-2.853869200E-1;-5.573561788E-1;-6.390078366E-2
3.011359792E1;-2.183914334E-1;-5.451804399E-1;-1.004541516E-1
3.013375592E1;-1.994922757E-1;-6.171539426E-1;-6.982599199E-2
3.015391392E1;-2.079562694E-1;-5.339462161E-1;-1.404830217E-1
3.017407192E1;-1.449071020E-1;-3.918334842E-1;-2.132864296E-1
3.019422992E1;-9.598872066E-2;-3.474332392E-1;-2.503408790E-1
3.021438792E1;6.928178668E-2;-2.183657736E-1;-2.607535720E-1
3.023454592E1;7.057496160E-2;-2.914643288E-1;-1.753933430E-1
3.025470492E1;7.077836990E-2;-2.502713799E-1;-2.128342092E-1
3.027486292E1;2.269959897E-1;-2.747766078E-1;-1.027668864E-1
3.029502092E1;5.900154114E-1;-2.742742896E-1;-1.240339726E-1
3.031517892E1;1.033399224E0;-5.174963474E-1;-5.245839804E-2
3.033533692E1;1.144614220E0;-9.681497812E-1;-5.169584230E-2
3.035549492E1;1.090380073E0;-1.227986813E0;1.992674544E-2
3.037565292E1;9.473373294E-1;-9.761345983E-1;3.050560504E-2
3.039581092E1;7.087945938E-1;-3.470602930E-1;1.110167131E-1
3.041596892E1;5.798109174E-1;1.069342066E-2;1.332116723E-1
3.043612692E1;6.120674014E-1;-2.771839797E-1;-1.319221966E-2
3.045628492E1;6.436568499E-1;-3.298112452E-1;-1.862551868E-1
3.047644292E1;5.891825557E-1;-1.952197403E-1;-2.750676274E-1
3.049660192E1;6.321507096E-1;6.469900720E-3;-2.976838946E-1
3.051675992E1;6.409494281E-1;-1.053159833E-1;-1.344162822E-1
3.053691792E1;4.481711686E-1;-1.972509325E-1;-1.800244004E-1
3.055707642E1;2.170312405E-2;-1.404914558E-1;-1.754965335E-1
3.057723442E1;-5.504058003E-1;5.690960586E-2;-1.605129242E-1
3.059739242E1;-9.467115998E-2;-3.299418092E-2;-1.003919840E-1
3.061755042E1;9.665635973E-2;-6.518255919E-3;-1.494718045E-1
3.063770842E1;2.221571207E-1;4.888710007E-2;-1.292252243E-1
3.065786642E1;9.724869579E-2;1.605887860E-1;-2.245331854E-1
3.067802442E1;2.533400059E-1;1.103697717E-1;-1.433993131E-1
3.069818242E1;5.483694375E-2;1.405855268E-1;-1.879156828E-1
3.071834042E1;-7.103876676E-3;1.231445596E-1;-1.472960114E-1
3.073849942E1;1.262568682E-2;1.718467623E-1;-2.552471757E-1
3.075865742E1;1.718685329E-1;-1.398161286E-3;-1.272418648E-1
3.077881542E1;-2.466028556E-2;1.315269023E-1;-1.573533118E-1
3.079897342E1;1.303151697E-1;9.373184294E-2;-2.048390806E-1
3.081913142E1;2.739755213E-1;2.170068678E-3;4.496313259E-2
3.083928942E1;3.610851616E-2;2.534276247E-1;-1.135010086E-2
3.085944742E1;1.893643737E-1;3.690467775E-1;1.803715155E-2
3.087960542E1;3.559970558E-1;1.123878211E-1;1.623977870E-1
3.089976342E1;-4.182835296E-2;2.788774669E-1;6.055158749E-2
3.091992142E1;-2.737323642E-1;3.758493066E-1;7.468819618E-2
3.094007942E1;-4.970292747E-1;3.215382695E-1;1.484712362E-1
3.096023742E1;-5.514132380E-1;3.385717273E-1;3.413405269E-2
3.098039642E1;-2.618683577E-1;3.675853610E-1;4.297158122E-2
3.100055442E1;-8.130246401E-2;1.009078622E-1;1.715528816E-1
3.102071242E1;-2.958758473E-1;3.367839754E-2;6.767779589E-2
3.104087042E1;-1.247314885E-1;5.419119596E-1;-2.319995165E-1
3.106102842E1;1.329346597E-1;7.434169650E-1;-2.992290258E-1
3.108118642E1;-5.325843766E-2;3.947691619E-1;-5.273934603E-1
3.110134442E1;-2.611881495E-1;2.433906943E-1;-9.521189332E-1
3.112150242E1;-2.399048358E-1;4.947142601E-1;-1.552692533E0
3.114166042E1;-2.355479747E-1;6.016210318E-1;-1.825534225E0
3.116181842E1;-2.899761796E-1;3.257480264E-1;-1.788530111E0
3.118197642E1;-3.504756987E-1;2.012754530E-1;-7.051565647E-1
3.120213442E1;-1.724596024E-1;4.370551109E-1;4.497075975E-1
3.122229242E1;-1.659448594E-1;1.026069999E0;1.392422318E-1
3.124245042E1;-2.589161694E-1;6.155015230E-1;-1.878676377E-2
3.126260942E1;-1.168342754E-1;9.979039431E-2;3.672630992E-3
3.128276742E1;-1.596019268E-1;4.946833104E-2;-3.380242735E-2
3.130292542E1;-1.103943139E-1;5.563636124E-2;-5.023523420E-2
3.132308342E1;-8.858909458E-2;4.037908465E-2;2.102418803E-3
3.134324142E1;-2.074805051E-1;-1.021332107E-2;1.872752309E-1
3.136339942E1;-2.066099048E-1;7.324775308E-2;3.810037076E-1
3.138355742E1;-1.267534345E-1;2.478732020E-1;5.023180842E-1
3.140371542E1;-1.941603869E-1;3.633302450E-1;5.397250056E-1
3.142387342E1;-4.654318690E-1;4.732436240E-1;6.449128389E-1
3.144403142E1;-3.346676528E-1;3.629949391E-1;5.251765251E-1
3.146418942E1;-1.282876879E-1;2.249691635E-1;3.349704742E-1
3.148434742E1;-2.923399508E-1;1.085833907E-1;2.161478400E-1
3.150450542E1;-5.805288553E-1;-9.647968411E-2;3.235327303E-1
3.152466342E1;-7.104727626E-1;-2.552346587E-1;2.894287109E-1
3.154482096E1;-4.378284812E-1;-1.448059678E-1;2.161940336E-1
3.156497896E1;-3.735166788E-1;-1.225989982E-1;2.631281614E-1
3.158513796E1;-4.041360915E-1;-2.960985601E-1;2.560890317E-1
3.160529596E1;-4.588327408E-1;-3.062914312E-1;3.052960336E-1
3.162545396E1;-2.823106647E-1;-1.664890945E-1;2.790091932E-1
3.164561196E1;-2.483938485E-1;-1.725217402E-1;2.040241808E-1
3.166576996E1;-4.376714230E-1;-3.645583987E-1;1.232253909E-1
3.168592796E1;-5.605131984E-1;-4.012451768E-1;2.228273451E-2
3.170608596E1;-3.912925124E-1;-3.080453575E-1;1.249393225E-1
3.172624396E1;-2.276111692E-1;-4.203213155E-1;2.109818012E-1
3.174640196E1;-3.325323761E-1;-5.169951916E-1;-2.525506541E-2
3.176655996E1;-4.845633358E-2;-6.329516768E-1;3.229068127E-3
3.178671796E1;3.726807833E-1;-9.009000659E-1;2.764912248E-1
3.180687596E1;2.466882616E-1;-1.009920239E0;1.790070981E-1
3.182703396E1;4.077650309E-1;-6.841431856E-1;2.046930194E-1
3.184719196E1;7.619290948E-1;-6.816635132E-1;1.519273818E-1
3.186734996E1;9.043481946E-1;-6.164995432E-1;3.837708011E-2
3.188750796E1;1.004263043E0;-2.562935948E-1;-1.327663511E-1
3.190766596E1;1.287073612E0;-4.294318557E-1;-1.530877203E-1
3.192782496E1;1.434916854E0;-7.412115932E-1;-7.305510342E-2
3.194798296E1;1.138765454E0;-2.771142125E-1;-1.255268157E-1
3.196814096E1;1.000180244E0;-1.028959900E-1;2.870623767E-2
3.198829896E1;8.553695679E-1;1.716573387E-1;1.540277600E-1
3.200845696E1;4.744566679E-1;1.914273947E-1;4.861332849E-2
3.202861496E1;5.829501152E-1;3.512876332E-1;-2.189253084E-2
3.204877296E1;6.244212985E-1;3.241913319E-1;-4.872031137E-2
3.206893096E1;4.185582995E-1;3.118419647E-1;-1.039325893E-1
3.208908896E1;2.882408202E-1;3.180002868E-1;-1.167642176E-1
3.210924696E1;3.660096526E-1;1.808741391E-1;-9.172011912E-2
3.212940496E1;2.410072982E-1;6.947294623E-2;-5.066508427E-2
3.214956296E1;-1.964279711E-1;5.163226277E-2;-9.024595469E-2
3.216972096E1;-6.438365579E-2;2.556141615E-1;-9.950336814E-2
3.218987896E1;2.466757596E-1;1.161049157E-1;-1.315775961E-1
3.221003696E1;-1.443136930E-1;1.501809806E-1;-1.106195450E-1
3.223019496E1;-6.583517790E-2;2.483347505E-1;-3.267483041E-2
3.225035296E1;1.705181152E-1;2.690594792E-1;6.479883939E-2
3.227051096E1;-1.878693402E-1;4.232770801E-1;3.995627165E-2
3.229066896E1;-3.091110885E-1;5.968430638E-1;3.436115384E-2
3.231082696E1;-2.859972119E-1;4.326645434E-1;1.917603016E-1
3.233098496E1;-3.120220900E-1;4.186328948E-1;1.886627972E-1
3.235114296E1;-1.924767643E-1;3.539302349E-1;1.421937440E-2
3.237130196E1;-2.828262448E-1;8.037725836E-2;1.797957122E-1
3.239145996E1;-6.346468925E-1;2.819594741E-1;1.527286172E-1
3.241161796E1;-4.605709612E-1;5.627934933E-1;2.615482360E-2
3.243177596E1;-2.398673892E-1;2.362312824E-1;1.550594568E-1
3.245193396E1;-3.715460300E-1;2.202521116E-1;3.835423291E-2
3.247209196E1;-3.466886282E-1;6.130029559E-1;-1.344053000E-1
3.249224996E1;-1.020543724E-1;8.209559321E-1;-3.231673539E-1
3.251240796E1;-1.105151623E-1;7.139425278E-1;-3.788465858E-1
3.253256596E1;-2.413888872E-1;7.247306108E-1;-5.157192945E-1
3.255272342E1;-1.366423666E-1;7.143966556E-1;-4.319932461E-1
3.257288142E1;-2.642683387E-1;6.228725910E-1;-9.091521800E-2
3.259303942E1;-2.921140492E-1;6.061715484E-1;2.594374716E-1
3.261319742E1;-9.622643143E-2;7.950932980E-1;1.877721101E-1
3.263335542E1;-3.505607694E-2;8.542093635E-1;1.738300472E-1
3.265351342E1;-3.864436597E-2;6.703375578E-1;1.233063042E-1
3.267367142E1;1.143369358E-2;5.425361395E-1;1.627342105E-1
3.269382942E1;-4.931157921E-3;3.693264723E-1;8.968748897E-2
3.271398742E1;-1.289017126E-2;6.950710714E-2;-5.227328837E-2
3.273414542E1;-3.330291435E-2;6.681864709E-2;2.607733756E-2
3.275430342E1;1.350831706E-2;2.384451032E-2;1.085918099E-1
3.277446142E1;-2.523484640E-2;-1.300005764E-1;1.749348789E-1
3.279461942E1;-4.130343348E-2;-6.494230777E-2;1.961306632E-1
3.281477742E1;4.915603995E-2;2.448877320E-2;2.399488240E-1
3.283493542E1;4.835885763E-2;1.376770735E-1;3.020793498E-1
3.285509342E1;-8.675828576E-2;3.511150479E-1;4.218238294E-1
3.287525142E1;-3.018674254E-1;4.071645439E-1;5.152502060E-1
3.289540942E1;-4.899761677E-1;1.597890556E-1;5.606432557E-1
3.291556742E1;-5.787586570E-1;9.268384427E-2;4.567585886E-1
3.293572542E1;-4.263209701E-1;1.051491648E-1;5.016710162E-1
3.295588442E1;-3.321024477E-1;-8.761851490E-2;3.580402136E-1
3.297604242E1;-1.575841308E-1;-1.004328281E-1;3.385286331E-1
3.299620042E1;-7.444024086E-2;-3.351787627E-1;2.958568037E-1
3.301635842E1;-2.184246480E-1;-5.550137162E-1;2.759382427E-1
3.303651642E1;-4.293422103E-1;-7.538195848E-1;1.425747722E-1
3.305667442E1;-3.181126118E-1;-6.028308868E-1;1.641399860E-1
3.307683242E1;-2.390066236E-1;-8.474221826E-1;1.996973753E-1
3.309699042E1;-1.956970245E-1;-9.279170036E-1;2.708667517E-1
3.311714842E1;-2.181385458E-2;-8.936230540E-1;3.646677732E-1
3.313730642E1;-1.137757897E-1;-1.063294291E0;3.915918469E-1
3.315746442E1;-5.204583518E-3;-9.847188592E-1;2.163017243E-1
3.317762242E1;2.135665566E-1;-8.654145002E-1;3.606800139E-1
3.319778042E1;1.025099158E-1;-8.999036551E-1;2.925397158E-1
3.321793842E1;2.477307022E-1;-8.332940340E-1;1.572854519E-1
3.323809642E1;4.979688823E-1;-7.710533738E-1;2.260845155E-1
3.325825442E1;5.920267105E-1;-7.691348791E-1;1.461409777E-1
3.327841242E1;4.940072596E-1;-6.629089117E-1;-9.309000336E-3
3.329857042E1;5.189557076E-1;-2.661867738E-1;-6.012883782E-2
3.331872842E1;8.205506206E-1;-2.302978039E-1;-1.104567386E-2
3.333888642E1;8.680951595E-1;-1.811186522E-1;-9.050090611E-2
3.335904442E1;8.123969436E-1;-4.850184172E-2;-4.314680398E-2
3.337920242E1;6.700502634E-1;8.245120943E-2;-5.688914098E-4
3.339936042E1;7.428480387E-1;2.089284509E-1;7.132872939E-2
3.341951842E1;4.955328703E-1;1.193517372E-1;-6.385043263E-2
3.343967642E1;2.641132474E-1;1.844321042E-1;-7.462929189E-2
3.345983442E1;3.037433028E-1;1.670060158E-1;-1.244775280E-1
3.347999242E1;4.508244246E-2;1.330629587E-1;-1.124594808E-1
3.350015042E1;-1.027619839E-1;3.169965371E-2;-1.072242707E-1
3.352030842E1;7.483921945E-2;4.185025766E-2;-1.444844157E-1
3.354046642E1;2.652184367E-1;-1.024469659E-1;-8.583562821E-2
3.356062496E1;1.287016571E-1;-1.416266263E-1;-1.326460391E-2
3.358078296E1;2.977801114E-2;-9.854769707E-2;4.891574383E-2
3.360094096E1;5.068829283E-2;-9.439410269E-2;6.728281826E-2
3.362109896E1;2.214406580E-1;-1.752081215E-1;7.823155820E-2
3.364125696E1;-1.350018829E-1;-2.982908860E-2;6.695679575E-2
3.366141496E1;-1.038123891E-1;4.296416044E-2;6.850633025E-2
3.368157296E1;9.478741139E-2;-3.527785093E-2;5.166367441E-2
3.370173096E1;1.026080027E-1;-9.496165067E-2;2.376373857E-1
3.372188896E1;-4.141867161E-1;1.314013749E-1;2.124672383E-1
3.374204696E1;-2.413486689E-1;4.321514070E-1;9.728031605E-2
3.376220496E1;2.957107425E-1;-5.696064234E-2;1.417841911E-1
3.378236296E1;-2.187374681E-1;-1.271514148E-1;1.540167481E-1
3.380252096E1;-6.382974982E-1;2.979211807E-1;9.965954721E-2
3.382267896E1;-5.071439743E-1;3.064272702E-1;3.205460012E-1
3.384283696E1;-5.708261132E-1;3.266353607E-1;4.055467844E-1
3.386299496E1;-3.663737774E-1;4.079265296E-1;2.958588600E-1
3.388315296E1;-8.146328479E-2;1.574611217E-1;3.394195735E-1
3.390331096E1;-1.740631312E-1;2.342937440E-1;1.514501423E-1
3.392346896E1;1.883045733E-1;4.736737311E-1;-2.267268002E-1
3.394362696E1;1.727569848E-1;3.530113697E-1;-2.451076210E-1
3.396378496E1;9.935905784E-2;5.556593537E-1;-3.176710308E-1
3.398394296E1;2.526005805E-1;7.656010389E-1;-4.542922080E-1
3.400410096E1;1.897550374E-1;2.284214795E-1;-4.801637530E-1
3.402425896E1;8.709745854E-2;2.871601880E-1;-5.482025146E-1
3.404441696E1;1.456707716E-2;4.607385397E-1;-5.472708941E-1
3.406457496E1;-3.722382784E-1;1.113871932E-1;-4.150344431E-1
3.408473296E1;-5.846260190E-1;3.319012746E-2;-2.344429195E-1
3.410489096E1;-4.878910780E-1;8.877541870E-2;-2.740188688E-2
3.412504896E1;-4.236367047E-1;-1.102111042E-1;3.735834360E-1
3.414520696E1;-3.025925905E-2;-3.369324207E-1;4.128449559E-1
3.416536496E1;1.839879602E-1;-1.314042360E-1;1.976857483E-1
3.418552296E1;-2.702372074E-1;-8.113069087E-2;1.088713035E-1
3.420568096E1;-8.493865132E-1;-2.514239028E-2;9.779968858E-2
3.422583896E1;-8.541158438E-1;8.713361621E-2;4.076008126E-2
3.424599696E1;-3.326465189E-1;-2.307308093E-2;1.930190027E-1
3.426615496E1;1.459619403E-1;4.490460455E-2;1.707500666E-1
3.428631296E1;1.174875945E-1;1.943723559E-1;4.392366707E-1
3.430647096E1;-5.403081775E-1;-5.374324322E-2;9.437876344E-1
3.432662896E1;-6.083944440E-1;-7.694220543E-2;8.084898591E-1
3.434678696E1;-2.818757296E-1;3.110883385E-2;3.661269248E-1
3.436694496E1;-4.341771360E-3;-7.473438382E-1;3.012572229E-1
3.438710296E1;4.626215100E-1;-8.537091017E-1;1.771509945E-1
3.440726096E1;4.220501482E-1;-7.703923583E-1;7.748581171E-1
3.442741896E1;2.201274037E-1;-2.634184361E-1;9.341126084E-1
3.444757696E1;2.516835630E-1;-5.246313214E-1;9.254710078E-1
3.446773496E1;6.029583216E-1;-7.679383159E-1;8.496785164E-1
3.448789296E1;6.002568603E-1;-7.459806204E-1;6.730966568E-1
3.450805096E1;4.100722969E-1;-6.989747286E-1;4.434227943E-1
3.452820896E1;3.454753011E-2;-9.022741318E-1;5.090755820E-1
3.454836717E1;-1.123894602E-1;-9.189460278E-1;6.360463500E-1
3.456852517E1;6.724373698E-1;-8.684690595E-1;8.245230913E-1
3.458868317E1;1.213773370E0;-8.886206150E-1;7.682666779E-1
3.460884117E1;5.369623899E-1;-3.964772522E-1;5.660595894E-1
3.462899917E1;4.000663012E-2;-3.594543338E-1;2.208458185E-1
3.464915717E1;2.952210307E-1;-2.170784585E-2;-9.437011927E-2
3.466931517E1;5.566918850E-1;1.855584532E-1;-3.751128018E-1
3.468947317E1;8.340549469E-1;-1.080119386E-1;-8.252444863E-1
3.470963117E1;6.317946315E-1;-1.065103486E-1;-9.763897657E-1
3.472978917E1;7.488847971E-1;2.695856057E-2;-8.553844094E-1
3.474994717E1;7.288966775E-1;9.358252585E-2;-7.244483232E-1
3.477010517E1;8.289061189E-1;1.316019148E-2;-5.953570604E-1
3.479026317E1;6.843649745E-1;-1.095670238E-1;-4.327771962E-1
3.481042117E1;2.761834860E-1;-5.148787796E-2;-5.213586092E-1
3.483057917E1;2.916466296E-1;1.378945820E-2;-4.707347453E-1
3.485073717E1;3.280385733E-1;-1.670390666E-1;-4.179547727E-1
3.487089517E1;1.131943800E-2;-8.582401276E-2;-1.858424693E-1
3.489105317E1;-1.023749262E-1;-6.281436980E-2;-9.376487136E-2
3.491121117E1;-5.179389566E-2;-6.961973757E-2;-7.467211783E-2
3.493136917E1;-2.166551203E-1;-1.223254763E-2;-4.868102446E-2
3.495152717E1;-4.054239690E-1;1.241367310E-2;-1.015357673E-1
3.497168517E1;-3.586768210E-1;-5.650877208E-2;-2.423150688E-1
3.499184317E1;-5.831132531E-1;-5.312804878E-2;-2.742196620E-1
3.501200117E1;-7.568135262E-1;-3.808945045E-2;-2.279356718E-1
3.503215917E1;-8.525905609E-1;1.244727522E-1;-2.470012307E-1
3.505231717E1;-7.420359850E-1;1.430547386E-1;-1.694832444E-1
3.507247517E1;-7.717205882E-1;1.727959514E-1;1.059367321E-2
3.509263317E1;-9.172639251E-1;3.561671376E-1;-1.505746972E-3
3.511279117E1;-9.613412619E-1;3.071080148E-1;-9.167166427E-3
3.513294917E1;-8.719493151E-1;1.341393739E-1;1.739895716E-2
3.515310717E1;-6.266599894E-1;-1.504766792E-1;4.509666935E-2
3.517326517E1;-6.232898235E-1;-2.144679725E-1;8.726934344E-2
3.519342317E1;-6.094930768E-1;-3.215825558E-2;-9.476973675E-3
3.521358017E1;-2.503897548E-1;5.108693242E-2;-3.989242017E-2
3.523373817E1;-2.236780673E-1;-1.685077325E-2;-5.272280797E-2
3.525389617E1;-2.628885508E-1;1.615906656E-1;-2.696595788E-1
3.527405417E1;-3.305144608E-2;5.584610105E-1;-5.803252459E-1
3.529421217E1;1.464751177E-2;4.861873686E-1;-9.024845362E-1
3.531437017E1;1.866850704E-1;3.513839245E-1;-1.327560663E0
3.533452817E1;3.578678966E-1;4.880712628E-1;-1.491488695E0
3.535468617E1;1.146348044E-1;5.415377021E-1;-1.483557582E0
3.537484417E1;-5.713284388E-2;2.874399424E-1;-1.185350895E0
3.539500217E1;-3.436388969E-1;-1.842700839E-1;8.474942297E-2
3.541516017E1;-5.023877621E-1;4.469827190E-2;2.019727230E-1
3.543531817E1;-4.530939460E-2;3.683166206E-1;1.096525192E-1
3.545547617E1;1.645181477E-1;2.938084602E-1;3.131410480E-2
3.547563417E1;5.181276053E-2;-6.834822893E-2;-5.375820398E-2
3.549579217E1;-6.336168945E-2;-2.579138577E-1;-1.333406847E-2
3.551595017E1;5.315591767E-2;-5.506810173E-2;2.192073874E-2
3.553610817E1;5.511962250E-2;-5.764481053E-2;1.146638989E-1
3.555626567E1;8.760873973E-2;3.009825572E-2;1.337195188E-1
3.557642367E1;6.806026399E-2;1.537423879E-1;3.098607063E-1
3.559658167E1;-3.319580853E-2;2.411199361E-1;4.623051882E-1
3.561673967E1;-2.657934129E-1;2.741791904E-1;4.674554467E-1
3.563689767E1;-5.746270418E-1;2.940049171E-1;5.254906416E-1
3.565705567E1;-6.664968133E-1;3.405105174E-1;3.517937660E-1
3.567721367E1;-2.556712329E-1;1.819110215E-1;2.769498825E-1
3.569737167E1;-1.130180731E-1;-4.694630206E-2;3.337391615E-1
3.571752967E1;-1.316949427E-1;-9.722165018E-2;2.586431205E-1
3.573768767E1;-1.619948745E-1;-2.434727997E-1;2.519441247E-1
3.575784567E1;-2.552782893E-1;-3.661631644E-1;1.096217111E-1
3.577800367E1;-2.296438515E-1;-5.031830072E-1;1.330191046E-1
3.579816167E1;-2.330197245E-1;-7.731572986E-1;1.795859933E-1
3.581831967E1;-2.036623061E-1;-5.965644717E-1;1.507427692E-1
3.583847667E1;-3.940098360E-2;-5.260149240E-1;4.024363756E-1
3.585863467E1;-7.610084116E-2;-8.826066256E-1;4.382985532E-1
3.587879267E1;-1.525179744E-1;-7.522004247E-1;4.203798175E-1
3.589895067E1;-1.208534464E-1;-7.122790813E-1;5.594290495E-1
3.591910867E1;-1.514351964E-1;-7.747053504E-1;5.299705863E-1
3.593926667E1;1.480084807E-1;-4.613703787E-1;5.682384968E-1
3.595942467E1;3.482439816E-1;-4.122421741E-1;6.349064112E-1
3.597958267E1;3.154266775E-1;-2.515111864E-1;3.948289454E-1
3.599974067E1;2.375730425E-1;-1.412900835E-1;1.388842165E-1
3.601989867E1;1.981419027E-1;-4.752560332E-2;-4.563006014E-2
3.604005667E1;7.740437388E-1;-1.777728498E-1;-2.934457362E-2
3.606021467E1;8.773209453E-1;-2.271226346E-1;-8.668506145E-2
3.608037267E1;7.327259183E-1;2.653173506E-1;-1.504862309E-1
3.610053067E1;9.886275530E-1;3.096696734E-1;1.310335547E-1
3.612068867E1;7.515670657E-1;4.717702866E-1;1.505907327E-1
3.614084667E1;9.132596254E-1;4.354834259E-1;1.359008104E-1
3.616100467E1;9.044315219E-1;2.399256378E-1;-6.533322483E-2
3.618116267E1;9.914693236E-2;3.345232010E-1;-2.911983728E-1
3.620132067E1;1.441151053E-1;2.814230025E-1;-1.263064593E-1
3.622147867E1;4.569492042E-1;1.845969409E-1;-9.852156788E-2
3.624163667E1;3.545012176E-1;1.784995645E-1;-9.480589628E-2
3.626179367E1;1.866241395E-1;1.082465798E-1;-1.449500769E-1
3.628195167E1;-1.852299273E-2;1.505712122E-1;-2.001691312E-1
3.630210967E1;-8.382415771E-2;-1.911295205E-2;-2.096192837E-1
3.632226767E1;-2.825617492E-1;-5.314042792E-2;-5.766756460E-2
3.634242567E1;-3.940385282E-1;3.375019878E-2;-1.680357382E-2
3.636258367E1;-4.756157752E-3;-1.931582093E-1;7.407928258E-2
3.638274167E1;-1.071424186E-1;-2.522364259E-2;9.759394825E-2
3.640289967E1;-2.218577266E-1;2.305132747E-1;4.685361683E-2
3.642305767E1;1.773962565E-2;9.897631407E-2;2.856181376E-2
3.644321567E1;-5.768877640E-2;-1.025309116E-1;1.023240015E-1
3.646337367E1;-4.033538997E-1;-3.116112761E-2;2.053149492E-1
3.648353167E1;-7.081950903E-1;1.596733183E-1;1.721185446E-1
3.650368967E1;-4.249454141E-1;2.479556054E-1;1.829065084E-1
3.652384767E1;-1.128628775E-1;6.302809715E-2;1.576216668E-1
3.654400567E1;3.727466986E-2;1.133042350E-1;1.020083353E-1
3.656416379E1;7.864642888E-3;2.004989237E-1;1.673089862E-1
3.658432179E1;-1.163563728E-1;2.572594285E-1;5.130063370E-2
3.660447979E1;-2.232681364E-1;3.583861887E-1;5.445327982E-2
3.662463779E1;-1.636153758E-1;5.462263227E-1;-7.461922709E-3
3.664479479E1;4.102409258E-2;6.143915057E-1;-2.265219539E-1
3.666495279E1;1.142549068E-1;5.526569486E-1;-5.106865168E-1
3.668511079E1;1.292953342E-1;5.513994694E-1;-9.939215183E-1
3.670526879E1;-1.031015590E-1;4.702262878E-1;-1.315898061E0
3.672542679E1;-4.706712365E-1;7.238382101E-1;-1.174559355E0
3.674558479E1;-5.139368773E-1;8.468068242E-1;-7.759396434E-1
3.676574279E1;-1.725047529E-1;5.408288836E-1;-3.448791206E-1
3.678590079E1;6.644987967E-3;6.211633235E-2;5.915297195E-2
3.680605879E1;2.316317149E-2;-4.224420339E-2;-9.325467795E-2
3.682621679E1;-6.287369877E-2;-6.314904988E-2;2.960525826E-2
3.684637479E1;-1.137211919E-1;-4.010707140E-3;8.494508266E-2
3.686653279E1;-2.496249601E-2;6.737546623E-2;1.202574745E-1
3.688669079E1;-5.139384791E-2;-3.626801446E-2;2.621700764E-1
3.690684879E1;-2.602174412E-3;-3.223059326E-2;2.407116294E-1
3.692700679E1;-1.373065561E-1;2.657313645E-2;2.708295584E-1
3.694716479E1;-3.224880695E-1;8.689607680E-2;3.769068420E-1
3.696732179E1;-4.705534279E-1;1.160014272E-1;3.895894289E-1
3.698747979E1;-3.837553263E-1;1.320618093E-1;3.654960990E-1
3.700763779E1;-1.324212402E-1;1.465446949E-1;2.849057019E-1
3.702779579E1;-4.500276968E-2;-1.623803377E-1;3.209219277E-1
3.704795379E1;-1.390629709E-1;-2.425104827E-1;3.670800328E-1
3.706811179E1;-2.919043303E-1;-3.164600134E-1;3.130008578E-1
3.708826979E1;-4.254590273E-1;-6.331275702E-1;2.612744868E-1
3.710842779E1;-4.332690239E-1;-8.516491652E-1;4.050729573E-1
3.712858579E1;-3.109121919E-1;-8.630926609E-1;5.600152016E-1
3.714874379E1;-1.835798919E-1;-3.785989583E-1;6.077443361E-1
3.716890179E1;-2.921866812E-2;-3.621761501E-1;5.970066786E-1
3.718905979E1;2.766115963E-2;-5.300427079E-1;4.425893426E-1
3.720921779E1;1.094067544E-1;-5.762318969E-1;2.118813396E-1
3.722937579E1;3.395538330E-1;-5.534977913E-1;2.382394224E-1
3.724953279E1;3.080903590E-1;-7.195807099E-1;3.914393187E-1
3.726969079E1;5.223898888E-1;-5.665889978E-1;5.879392028E-1
3.728984879E1;8.312066793E-1;-6.486460567E-1;8.738396764E-1
3.731000679E1;6.069509983E-1;-3.538659513E-1;7.225834727E-1
3.733016479E1;6.332363486E-1;3.174037933E-1;4.340829253E-1
3.735032279E1;7.645310163E-1;1.484609246E-1;2.936750054E-1
3.737048079E1;3.723664284E-1;2.731766105E-1;4.691414163E-2
3.739063879E1;9.205172062E-1;1.974807084E-1;8.870114572E-3
3.741079679E1;1.308465362E0;-1.331786215E-1;-6.314191222E-2
3.743095479E1;1.187230945E0;-2.601052262E-2;-2.325887084E-1
3.745111279E1;1.136903405E0;-1.993644089E-1;-3.467215896E-1
3.747127079E1;3.947328627E-1;2.153125852E-1;-3.973918855E-1
3.749142879E1;3.835856318E-1;3.115606904E-1;-1.432501078E-1
3.751158679E1;4.140792787E-1;3.265744746E-1;-9.358116984E-2
3.753174479E1;6.328169107E-1;1.157027930E-1;-2.265789658E-1
3.755190304E1;7.425081134E-1;-1.136988252E-1;-4.146991372E-1
3.757206104E1;4.877264500E-1;-1.998934895E-1;-2.400163263E-1
3.759221904E1;5.998998284E-1;-1.375652254E-1;-2.181082219E-1
3.761237704E1;4.542049170E-1;5.525298417E-3;-1.750321984E-1
3.763253504E1;-1.761572957E-1;3.509332836E-1;-7.883487642E-2
3.765269304E1;-2.371350676E-1;4.774141014E-1;6.526677310E-2
3.767285104E1;1.112251356E-1;1.850464493E-1;2.003054880E-2
3.769300904E1;-1.623084545E-1;1.073373109E-1;-5.028690398E-2
3.771316704E1;-3.419023007E-2;5.121051893E-2;1.509826183E-1
3.773332504E1;-6.998635083E-2;2.979491353E-1;3.248541951E-1
3.775348304E1;-4.165410697E-1;7.657867670E-1;3.468263447E-1
3.777364104E1;-2.724421322E-1;6.304165721E-1;3.449531794E-1
3.779379804E1;-2.397310138E-1;2.605643868E-1;2.796293795E-1
3.781395604E1;-3.635840714E-1;6.473570317E-2;2.084280364E-2
3.783411404E1;-6.411899924E-1;-1.466763318E-1;-5.888480693E-2
3.785427204E1;-7.605208755E-1;-2.102552056E-1;2.661436051E-2
3.787443004E1;-6.909930110E-1;-5.391056091E-2;1.751712151E-2
3.789458804E1;-3.726556003E-1;-7.210097462E-2;-1.779859886E-2
3.791474604E1;-1.812555343E-1;1.450581551E-1;-1.587617844E-1
3.793490404E1;-1.771189421E-1;1.054895967E-1;-3.254201114E-1
3.795506204E1;-5.358558893E-1;-3.044508100E-1;-3.793181777E-1
3.797522004E1;-8.407594562E-1;-8.391679823E-2;-3.508929908E-1
3.799537804E1;-4.900482595E-1;2.182347924E-1;-2.659885585E-1
3.801553604E1;-1.025473699E-1;-1.927687088E-3;-1.268072873E-1
3.803569304E1;-2.466209233E-1;2.044789493E-1;1.265382618E-1
3.805585104E1;-4.470532537E-1;3.481850028E-1;2.882653475E-1
3.807600904E1;-2.607084811E-1;2.566576898E-1;2.886130512E-1
3.809616704E1;1.900055557E-1;1.118126139E-2;3.667082265E-2
3.811632504E1;6.061523557E-1;5.871041119E-2;-4.008641243E-1
3.813648304E1;3.951226175E-1;-4.576297104E-2;-6.165273190E-1
3.815664104E1;-1.576027274E-1;-1.745412946E-1;-2.672506571E-1
3.817679904E1;-3.113965094E-1;-5.895800516E-2;1.743921489E-1
3.819695704E1;-2.081438750E-1;-2.282726020E-2;2.734567523E-1
3.821711504E1;-2.084139884E-1;1.759933829E-1;3.028817475E-1
3.823727304E1;-3.161675334E-1;3.934369385E-1;3.783882558E-1
3.825743004E1;-3.461623490E-1;2.990215421E-1;3.188961744E-1
3.827758804E1;-3.123875856E-1;2.100580335E-1;3.358688056E-1
3.829774604E1;-1.628346145E-1;-1.385953873E-1;3.597561717E-1
3.831790404E1;-2.013842613E-1;4.312133417E-3;3.057362735E-1
3.833806204E1;-3.474631011E-1;6.730268896E-2;2.415471077E-1
3.835822004E1;-4.322551489E-1;-7.923603803E-2;3.018489480E-1
3.837837804E1;-4.496228397E-1;-3.796327710E-1;5.009474754E-1
3.839853604E1;-4.695496261E-1;-4.942128956E-1;6.371979117E-1
3.841869404E1;-4.892276227E-1;-6.157943010E-1;6.242845654E-1
3.843885204E1;-3.313934803E-1;-7.747914791E-1;4.812391996E-1
3.845901004E1;-1.395433098E-1;-8.826501966E-1;3.521986902E-1
3.847916704E1;-1.060025319E-1;-8.196112514E-1;2.860408723E-1
3.849932504E1;-1.226207986E-1;-6.745342016E-1;4.015358090E-1
3.851948304E1;-1.274905950E-1;-6.438245773E-1;5.897530913E-1
3.853964104E1;-1.337369531E-1;-7.709891200E-1;6.972954273E-1
3.855979779E1;4.747177660E-2;-5.900910497E-1;7.620458603E-1
3.857995579E1;1.772604585E-1;-1.606841534E-1;5.141273737E-1
3.860011379E1;3.742168248E-1;-4.016705789E-3;2.072171718E-1
3.862027179E1;4.426110685E-1;8.704506792E-3;3.065303434E-3
3.864042979E1;5.951383710E-1;-6.802333891E-2;1.684403978E-2
3.866058779E1;6.635094285E-1;-4.227598757E-2;-7.516039163E-2
3.868074479E1;6.650404334E-1;1.225853190E-1;-1.629371643E-1
3.870090279E1;1.141073108E0;3.675367683E-2;-9.757148474E-2
3.872106079E1;1.356443286E0;-5.867064372E-2;-1.341522932E-1
3.874121879E1;1.349952459E0;-8.178863674E-2;-1.396985054E-1
3.876137679E1;9.310941696E-1;1.693470925E-1;-7.812482864E-2
3.878153479E1;6.726008654E-1;2.220538557E-1;-4.016517475E-2
3.880169279E1;8.823263049E-1;2.792191319E-2;2.397816069E-2
3.882185079E1;5.328535438E-1;1.296221316E-1;-1.541878879E-1
3.884200879E1;1.429886818E-1;2.818660736E-1;-1.529406905E-1
3.886216679E1;-5.559329316E-2;2.382893413E-1;-2.156919837E-1
3.888232379E1;1.085000113E-1;-1.315922756E-2;-2.249947935E-1
3.890248179E1;4.178164601E-1;-1.720007956E-1;-7.172653079E-2
3.892263979E1;3.933662176E-1;-1.458766907E-1;-2.608080953E-2
3.894279779E1;3.746658862E-1;-2.353294045E-1;-1.027848795E-1
3.896295579E1;3.483170271E-1;-2.912468612E-1;-9.910278022E-3
3.898311379E1;8.900599182E-2;-1.734874099E-1;-8.796039969E-3
3.900327179E1;-2.827601731E-1;-2.092062309E-2;-7.165018935E-3
3.902342979E1;-4.784210622E-1;2.176230550E-1;9.288988262E-2
3.904358779E1;-2.140237540E-1;4.335122183E-2;1.554791629E-1
3.906374479E1;6.979902089E-2;-7.737669349E-2;8.948238939E-2
3.908390279E1;-5.267427862E-2;-6.302502006E-2;2.632756531E-2
3.910406079E1;-9.368009865E-3;-3.942291439E-2;5.897568911E-2
3.912421879E1;-4.504300654E-1;-1.333044916E-1;2.664658427E-1
3.914437679E1;-1.116862178E0;3.752951920E-1;2.711794674E-1
3.916453479E1;-7.072028518E-1;3.622150719E-1;2.493502498E-1
3.918469279E1;-2.708452344E-1;5.406343192E-2;1.866571158E-1
3.920485079E1;-2.152054757E-1;-1.591890119E-2;5.446977913E-2
3.922500879E1;-4.198371172E-1;7.084736601E-3;2.226444520E-2
3.924516579E1;-3.974310160E-1;-3.500511870E-2;8.874764293E-2
3.926532379E1;-2.682162821E-1;3.224384189E-1;1.075272560E-1
3.928548179E1;-1.349816471E-2;9.584903717E-1;8.594255149E-2
3.930563979E1;2.174171992E-2;9.225389957E-1;-1.401980668E-1
3.932579779E1;1.656578332E-1;4.552631974E-1;-3.096548915E-1
3.934595579E1;5.343675613E-1;2.830785513E-1;-5.653682351E-1
3.936611379E1;1.803921163E-1;3.028804362E-1;-9.797409773E-1
3.938627179E1;-4.339083135E-1;2.937168479E-1;-1.101216078E0
3.940642979E1;-5.408370495E-1;2.118563801E-1;-7.574051619E-1
3.942658679E1;-2.607936263E-1;3.709160537E-2;-5.073387623E-1
3.944674479E1;4.310582299E-3;1.461636126E-1;-2.864219546E-1
3.946690279E1;3.676531091E-2;-4.342033714E-2;-8.995596319E-2
3.948706079E1;5.812970921E-2;-2.377817333E-1;-1.073347479E-1
3.950721879E1;1.877501160E-1;-1.808154583E-1;-1.986728907E-1
3.952737679E1;1.904507726E-1;3.434323668E-1;-2.931095362E-1
3.954753479E1;6.220939010E-2;1.858071685E-1;-8.173225075E-2
3.956769342E1;-1.827964373E-2;-1.097999439E-1;3.950924873E-1
3.958785142E1;-2.805054188E-1;1.708338708E-1;3.763846159E-1
3.960800842E1;-3.356043100E-1;1.007568464E-1;5.324592590E-1
3.962816642E1;-4.023278952E-1;1.086375490E-1;6.445412636E-1
3.964832442E1;-5.276282430E-1;1.731870323E-1;6.605112553E-1
3.966848242E1;-4.725714922E-1;-8.332066238E-2;6.117070913E-1
3.968864042E1;-4.710621536E-1;-4.393033087E-1;6.372972131E-1
3.970879842E1;-5.322026014E-1;-6.423326135E-1;6.186513305E-1
3.972895642E1;-3.866239786E-1;-4.617662728E-1;6.283441782E-1
3.974911442E1;-1.793086231E-1;-5.147374272E-1;7.098851204E-1
3.976927142E1;-7.738441229E-2;-4.991089106E-1;7.487313151E-1
3.978942942E1;-4.142801464E-2;-4.733353257E-1;8.506736755E-1
3.980958742E1;1.169136837E-1;-5.453281999E-1;8.079913259E-1
3.982974542E1;8.528330922E-2;-6.441370845E-1;8.177156448E-1
3.984990342E1;-3.318209574E-2;-7.315022349E-1;7.791194916E-1
3.987006142E1;4.334438220E-2;-5.046452284E-1;7.835046649E-1
3.989021942E1;4.077892601E-1;-3.569627106E-1;7.003284693E-1
3.991037742E1;3.809618354E-1;-5.899952054E-1;6.362333894E-1
3.993053442E1;-7.414695807E-3;-8.241655678E-2;3.364160061E-1
3.995069242E1;1.750797480E-1;1.083030626E-1;3.811585531E-2
3.997085042E1;6.554280519E-1;-2.892585397E-1;-1.537114233E-1
3.999100842E1;6.771534085E-1;-4.286385179E-1;-3.362698257E-1
4.001116642E1;7.937448025E-1;-2.443310469E-1;-3.678129613E-1
4.003132442E1;1.129208446E0;-3.960224092E-1;-2.937023342E-1
4.005148242E1;1.020410895E0;-2.704172134E-1;-3.051431775E-1
4.007164042E1;7.165895700E-1;-1.870275736E-1;-4.023763537E-1
