"Time (s)";"Linear Acceleration x (m/s^2)";"Linear Acceleration y (m/s^2)";"Linear Acceleration z (m/s^2)"
1.677204167E-2;-6.756611176E-1;4.592216063E-1;-2.517785332E0
3.693104167E-2;3.957493494E-1;9.288272828E-1;-2.592801601E0
5.709104167E-2;7.627295208E-1;8.310448802E-1;-6.031262612E-1
7.725004167E-2;1.403236739E0;8.544056761E-1;6.944317031E-1
9.740904167E-2;1.737278522E0;5.011151522E-1;1.130865541E0
1.175680417E-1;1.443434154E0;-3.143498218E-1;8.083494973E-1
1.377270417E-1;7.207365721E-1;-4.308418527E-1;8.921301574E-1
1.578860417E-1;7.405593641E-1;2.859960884E-2;6.500905126E-1
1.780460417E-1;2.271111184E-1;-6.656674951E-2;2.846126372E-1
1.982050417E-1;-3.465792359E-1;-4.210232082E-1;-4.727631730E-1
2.183640417E-1;-4.866666824E-1;-4.252896291E-1;-8.446724010E-1
2.385230417E-1;-5.261548300E-1;-1.537189141E-1;-6.231699318E-1
2.586820417E-1;-1.208939610E-1;2.491861117E-1;1.467773920E-1
2.788410417E-1;6.487865835E-1;4.253242739E-1;1.289407530E0
2.990000417E-1;1.329735484E0;3.004536214E-1;1.506550316E0
3.191600417E-1;1.480006003E0;1.339714050E-1;1.197239040E0
3.393190417E-1;9.733851126E-1;1.552223794E-2;8.401677060E-1
3.594780417E-1;7.818981555E-1;-4.214928127E-1;1.067279409E0
3.796370417E-1;7.877064872E-1;-3.011433005E-1;-3.564567912E-1
3.997960417E-1;2.383004380E0;2.600755568E0;2.122750951E0
4.199550417E-1;3.179298673E0;1.918532705E0;-7.450814545E-2
4.401140417E-1;3.540563922E0;1.066520733E0;-5.746631849E-1
4.602740417E-1;3.308773569E0;-8.390159507E-1;-1.156009737E0
4.804330417E-1;2.081103865E0;-4.174830115E0;2.069856454E0
5.005920417E-1;-1.404146566E0;-7.762557678E0;-6.176004589E-2
5.207508333E-1;-5.778146587E0;-1.131156732E0;2.253078371E0
5.409098333E-1;-1.133853468E0;-2.781852900E0;-1.319366909E0
5.610688333E-1;1.805030502E0;-4.187782867E0;-1.670762351E0
5.812278333E-1;1.139038779E0;-1.842898825E0;-3.739920062E-1
6.013878333E-1;-5.588055360E-1;-2.515221036E0;-2.010272157E0
6.215468333E-1;-1.751380544E0;-2.582628030E0;-2.572804123E0
6.417058333E-1;-1.350601566E0;-1.719649459E0;-2.459638281E0
6.618648333E-1;-1.372559322E0;-1.352828478E0;-2.356924921E0
6.820238333E-1;-1.678969502E0;-1.375527808E0;-2.610304071E0
7.021828333E-1;-2.065272821E0;-1.475699529E0;-1.279743837E0
7.223418333E-1;-2.625823751E0;-2.785212710E0;4.279390025E-1
7.425018333E-1;-2.647383020E0;-2.987123206E0;4.226102595E0
7.626608333E-1;-2.719709569E0;-3.646751989E0;5.880232540E0
7.828198333E-1;-2.132622221E0;-5.303895298E0;5.741634234E0
8.029788333E-1;-3.208045632E-1;-5.361860501E0;5.748087806E0
8.231378333E-1;2.617120171E-1;-2.716633641E0;7.215211515E0
8.432968333E-1;2.338224356E0;-1.576702578E0;4.035104465E0
8.634558333E-1;3.949847383E0;1.306354662E0;6.047096872E-1
8.836158333E-1;8.387226251E0;3.715452388E0;-3.030319512E-2
9.037748333E-1;8.412437106E0;4.209736238E0;-2.955835340E0
9.239338333E-1;8.785566648E0;1.245085168E1;-7.900085360E-1
9.440928333E-1;6.568074431E0;1.133696645E1;-5.031926680E-1
9.642518333E-1;1.561092792E1;-2.058259232E0;8.252567214E0
9.844108333E-1;-1.537102310E0;2.103644297E0;2.467455423E0
1.004569833E0;-1.161435603E1;-2.481941608E0;-3.310518086E0
1.024728833E0;-1.352964192E1;-1.618047216E0;-5.190958666E0
1.044888833E0;-5.833722033E0;-2.165164570E-1;-4.738292373E0
1.065047833E0;-3.473499282E0;-1.808536638E0;-2.073129140E0
1.085206833E0;-6.710811982E0;-6.376075258E0;-3.562930691E-1
1.105365833E0;-6.597439733E0;-8.296132479E0;-1.711565976E0
1.125524833E0;-2.734715863E0;-7.547132220E0;-4.959112473E0
1.145683833E0;1.531984300E1;5.274044092E0;-1.281276509E1
1.165842833E0;1.110350935E1;7.108950650E0;-8.313431466E0
1.186001833E0;8.917262902E0;5.718856405E0;-3.075814650E0
1.206161833E0;3.854350072E-1;5.729718778E-1;-3.249971922E0
1.226320833E0;-2.648334947E0;-2.018575788E-2;-5.481109786E0
1.246479833E0;-3.509318740E0;-5.934929150E0;6.269880466E0
1.266638833E0;-4.113668239E-1;-2.097813307E0;4.828233075E0
1.286797833E0;4.146774589E0;1.748250237E0;1.465392934E0
1.306956833E0;4.399131061E0;2.069657941E0;-5.080477573E-1
1.327115833E0;3.624969649E-1;-4.518155229E-1;-3.616523346E-1
1.347274833E0;-1.033397718E0;-4.165447673E0;2.122378483E0
1.367434833E0;-6.210526550E-1;-1.929499889E0;-1.282881745E0
1.387593833E0;1.006334465E0;7.389027017E-1;-1.860218570E0
1.407752833E0;1.652282225E0;1.770801194E0;-1.815199102E0
1.427911833E0;8.452518600E-1;2.105872086E0;9.508274317E-2
1.448070833E0;1.105166443E0;4.726573384E-1;-3.352208277E-2
1.468229833E0;-5.133446038E-1;-1.860461229E0;2.324238986E0
1.488388833E0;-2.116604358E-1;-2.496903756E0;1.955494856E0
1.508547833E0;1.037728751E-1;-7.341354668E-1;-1.228601750E0
1.528706917E0;-4.725129122E-1;4.391399288E-1;-2.233365068E0
1.548866917E0;-5.190701973E-1;8.611893234E-1;-3.468843144E0
1.569025917E0;-3.141009058E0;-2.631052331E0;-3.522053976E0
1.589184917E0;2.324521406E0;-7.861891347E-1;6.070043685E0
1.609343917E0;2.490766518E0;2.981179512E-1;1.934549983E0
1.629502917E0;5.206401747E-1;9.957170910E-1;-1.183044924E0
1.649661917E0;7.344112215E0;1.304140058E1;-4.119984401E0
1.669820917E0;-2.633039215E0;-2.926923198E-1;-5.153496140E0
1.689979917E0;-4.237205873E0;-2.171641860E0;1.317166163E0
1.710138917E0;-7.931801827E0;-6.084792117E0;-6.889818057E-1
1.730297917E0;-7.085056588E0;-2.440744173E0;-1.687594146E0
1.750457917E0;-6.466790131E0;6.150224215E-1;5.294273704E-2
1.770616917E0;-3.945109384E0;3.612489352E0;1.341997096E0
1.790775917E0;3.921368519E0;1.793926347E0;-3.109888130E0
1.810934917E0;1.031101809E0;1.968137121E0;-6.408144897E-1
1.831093917E0;3.835878718E-1;7.882818532E-1;9.960416114E-1
1.851252917E0;7.970396959E0;-2.010747535E0;1.461349234E1
1.871411917E0;-7.650352241E-1;-1.204770370E1;-8.715763757E0
1.891570917E0;3.276584939E0;-1.139536727E1;-8.595287726E0
1.911729917E0;-5.671815263E-1;4.957503319E-1;-7.468648553E-2
1.931889917E0;-1.295530004E0;3.558428920E0;1.572694019E0
1.952048917E0;-1.398979820E0;8.881061035E-1;8.114999771E-2
1.972207917E0;1.817922735E0;-5.172406036E-1;-1.245995463E0
1.992366917E0;1.798743429E0;6.778285342E-1;-5.776563746E-1
2.012525917E0;-4.799204573E-1;3.640172410E-1;-4.983348012E-1
2.032684917E0;-1.249336562E-1;3.959588259E-1;-6.239528739E-1
2.052843917E0;2.150732363E0;1.607741060E0;-2.765276921E-1
2.073002917E0;1.337350606E0;-2.905019528E-1;8.617971414E-1
2.093161917E0;8.447396439E-1;-2.140139401E-2;1.172050989E0
2.113320917E0;-2.888843206E0;1.696608798E0;-1.361366290E0
2.133479917E0;-4.709598917E0;-2.687603093E0;8.655218178E-1
2.153639917E0;4.658883092E-1;1.385129374E-1;-8.388573450E-1
2.173798917E0;-1.036982938E0;3.968552041E-1;-6.688665068E-1
2.193957917E0;-8.063333774E-1;3.048105572E0;-8.073776901E-1
2.214116917E0;-3.317844940E0;1.760304857E0;1.109885731E0
2.234275917E0;-1.467946267E0;5.993512988E-1;-9.144776309E-1
2.254434917E0;-2.917713833E-1;-1.511443850E0;1.989731473E-1
2.274593917E0;-3.067349929E-1;-1.355398622E0;-4.938920867E-1
2.294752917E0;-1.045214356E0;1.385325256E0;-1.745749968E0
2.314911917E0;1.201882021E0;-5.038469714E-1;-2.205449291E0
2.335070917E0;2.162337478E0;-3.687622565E-1;-6.496350145E-1
2.355229917E0;-1.039096707E0;-1.297565566E0;2.779491502E-1
2.375388917E0;-6.308879641E-1;-2.273322601E0;1.207086920E0
2.395547917E0;3.310231572E-1;-2.686890902E0;2.615174802E0
2.415706917E0;-4.971092248E-1;-3.066003900E0;-1.329248704E0
2.435866917E0;-3.977252698E-1;-3.157299986E0;-5.290214567E0
2.456025917E0;3.868801466E-1;3.018460774E0;1.489403940E0
2.476184917E0;-1.359617388E0;5.106710229E0;5.187679548E0
2.496343917E0;-1.342108485E0;3.568071563E0;1.229151973E0
2.516502792E0;4.645539746E-1;7.919579977E-1;-1.840150926E0
2.536661792E0;1.670075449E0;-1.494836004E0;1.107339268E0
2.556820792E0;2.097267908E0;-3.784824924E0;-2.827771962E0
2.576979792E0;2.117677322E-1;1.447770596E-1;-1.876093760E0
2.597138792E0;-1.111799524E0;1.373753031E0;1.313537235E0
2.617297792E0;-5.524573602E-1;5.597024989E-1;5.595650893E-1
2.637456792E0;2.410039566E-1;7.176872492E-2;-2.590363312E-1
2.657615792E0;2.408620155E-1;-1.567012864E-1;-1.001183653E-1
2.677774792E0;-4.176563814E-2;-2.439633787E-2;1.173758376E-1
2.697934792E0;-1.539484173E-1;1.902415001E-1;1.126892942E-1
2.718093792E0;-2.094857101E-1;1.659971899E-1;-3.122354686E-2
2.738252792E0;-9.693426400E-2;1.847878021E-1;-2.790706462E-1
2.758411792E0;2.022376478E-2;1.190756232E-1;-1.167145175E-1
2.778570792E0;2.442292808E-1;1.805380458E-1;1.423978275E-1
2.798729792E0;3.724848863E-1;3.069320440E-2;4.687063748E-1
2.818888792E0;2.404168962E-1;-2.628048617E-1;-1.484105194E-1
2.839047792E0;1.041029942E0;1.254555202E-1;4.501923358E-1
2.859206792E0;3.193113305E-1;8.350467145E-2;-6.469587439E-1
2.879365792E0;-7.039565981E-1;3.508329391E-3;-1.114531928E-1
2.899524792E0;-1.073901819E-1;2.213767540E-1;-2.577364951E-1
2.919683792E0;-3.378415223E-1;3.212296557E-1;-7.473384798E-2
2.939842792E0;3.466966919E-1;-1.268091506E-1;4.019294178E-1
2.960001792E0;1.974391302E-1;-6.604126024E-1;-7.474302810E-1
2.980160792E0;-3.131939004E-1;7.014249730E-1;2.991979319E-1
3.000319792E0;-6.359509950E-1;6.769853657E-1;1.736792618E-1
3.020478792E0;-2.184380896E-1;4.260211158E-1;-5.722143710E-2
3.040638792E0;-3.141818605E-1;-2.359842682E-1;1.774746895E-1
3.060797792E0;2.149618468E-1;-8.532935357E-1;-1.655118710E-1
3.080956792E0;-3.032485174E-1;-2.488218302E-1;-7.676066834E-1
3.101115792E0;2.740215755E-1;5.396178979E-1;5.747391987E-1
3.121274792E0;1.296283856E-1;-5.492359829E-1;-1.507113987E-1
3.141433792E0;4.106055895E-1;-9.242185074E-1;-4.069387275E-1
3.161592792E0;-4.101857594E-1;1.226666322E0;-2.581019461E-2
3.181751792E0;-1.073198472E0;5.657257158E-1;3.405038327E-1
3.201910792E0;-8.454647718E-1;-4.712803191E-1;1.207590365E-1
3.222069792E0;-5.292469838E-1;-2.294652075E-1;-7.193408418E-1
3.242228792E0;-4.500098296E-1;-5.296665215E-1;-1.938351989E-3
3.262387792E0;-3.142633561E-1;1.459295458E-1;7.564501959E-1
3.282546792E0;-9.321046472E-3;3.885580051E-1;2.118101245E-1
3.302705792E0;2.176311739E-1;6.169865012E-2;-1.466101617E-1
3.322864792E0;-2.593702072E-1;-2.706617653E-2;8.668789566E-2
3.343023792E0;-4.591888618E-1;-4.836097580E-1;4.204609984E-1
3.363182792E0;-9.190331966E-2;-3.965762919E-1;-2.553555089E-1
3.383341792E0;5.196951185E-1;-1.626443964E-1;-1.975762475E-1
3.403501792E0;5.311539070E-1;-5.135615355E-1;2.566611922E-1
3.423660792E0;1.137437811E0;-6.081162751E-2;8.765847498E-1
3.443819792E0;2.079401010E0;2.644338959E-1;5.301804918E-1
3.463978792E0;-6.392399807E-1;-4.324091989E-1;-2.081159121E0
3.484137792E0;-1.463625175E0;5.283830577E-1;-1.472387958E0
3.504296792E0;-9.123980686E-1;5.852349508E-1;-1.344274879E-3
3.524455917E0;-9.136894262E-1;8.363494742E-1;6.234365648E-1
3.544614917E0;3.952274854E-1;3.859595025E-1;-1.267910242E-1
3.564773917E0;-3.272548460E-1;-7.768920618E-1;6.754814619E-1
3.584932917E0;1.360850273E-1;-7.152781963E-1;-2.226023304E-1
3.605091917E0;2.828459740E-1;6.587882459E-2;-1.878301084E-2
3.625250917E0;-4.183198211E-1;1.400227470E0;-3.456698477E-2
3.645409917E0;-1.680384529E-1;1.773572189E0;-4.318689162E-1
3.665568917E0;-4.710326164E-1;3.726079702E-1;-5.465363234E-1
3.685727917E0;-2.526857433E-1;1.027232999E-1;-4.748459512E-1
3.705886917E0;5.028517753E-1;-2.811592716E-1;-2.357755226E-1
3.726045917E0;6.585969689E-1;-3.783686471E-1;2.363082039E-1
3.746204917E0;4.687286673E-1;-6.582503021E-2;3.738657063E-1
3.766363917E0;4.258507425E-1;-1.447957706E-1;2.021429229E-1
3.786522917E0;5.604024106E-1;-1.199725860E-1;4.310333490E-2
3.806681917E0;-2.426422734E-2;-3.954723376E-1;-1.794533873E-1
3.826840917E0;-5.469405122E-1;-6.562739432E-2;-1.957472384E-1
3.847000917E0;-1.111206471E0;2.170182395E-1;-5.379929566E-1
3.867159917E0;-1.250108102E0;6.428487360E-2;1.985281742E-1
3.887318917E0;-1.424389042E0;3.882410860E-1;-2.266380787E-3
3.907477917E0;-5.370941665E-1;2.995563662E-1;1.717169362E-1
3.927636917E0;3.277721784E-1;-2.314801580E-1;3.384953141E-3
3.947795917E0;8.752949271E-2;-3.413130873E-1;1.951098919E-2
3.967954917E0;-9.985122062E-2;-1.345491099E-1;-2.951849878E-2
3.988113917E0;-2.053845461E-2;3.356202382E-1;-1.161262876E-1
4.008272917E0;-4.505390392E-1;3.346291351E-1;-5.822657347E-1
4.028431917E0;-8.851433194E-1;4.335687017E-1;-3.675822884E-1
4.048590917E0;-4.935404498E-2;9.290816367E-1;-3.609421903E-1
4.068749917E0;-6.914559089E-2;3.276317722E-1;2.833730274E-1
4.088908917E0;-3.393702038E-2;3.497015029E-1;4.790658867E-1
4.109067917E0;3.193259485E-2;5.734235752E-1;7.661489725E-2
4.129226917E0;4.595100202E-2;5.102321309E-1;-3.630518657E-1
4.149385917E0;-1.702161022E-2;4.364823693E-1;-2.296558267E-1
4.169544917E0;-3.929223669E-1;1.806795484E-1;2.304861313E-1
4.189703917E0;-7.035820840E-1;6.154954612E-2;4.196330327E-1
4.209862917E0;-6.284889977E-1;-4.910684663E-1;2.568798780E-1
4.230021917E0;8.301106413E-1;9.204376978E-1;-6.942334825E-1
4.250180917E0;4.020430000E-1;1.704021898E0;2.544100142E-1
4.270339917E0;5.668840492E-1;4.581264228E-1;-1.011848974E0
4.290498917E0;5.999531235E-1;2.272104042E0;-1.880359889E0
4.310657917E0;-1.368955976E0;1.443484002E0;1.761491842E0
4.330816917E0;-3.273907499E0;-4.041125343E0;1.615922484E0
4.350975917E0;9.604372575E-1;-4.479902160E0;-1.454535824E-1
4.371134917E0;2.420786456E0;-2.828257281E0;9.477868795E-2
4.391293917E0;1.122640335E0;-1.261992275E0;2.143314439E-1
4.411452917E0;3.395643313E-1;-7.190438032E-2;7.244314277E-1
4.431611917E0;3.667391199E-1;1.169599251E0;-2.461923373E-1
4.451770917E0;2.795773074E-1;8.602581543E-1;-2.131155739E0
4.471929917E0;7.281354927E-2;2.575891453E-1;3.179669094E-1
4.492088917E0;-8.545705676E-3;6.313946253E-1;5.445459312E-1
4.512247917E0;-1.215584459E0;5.012613326E-1;1.026306800E0
4.532406667E0;2.507907338E-1;-2.396960807E-1;3.179821122E-1
4.552565667E0;6.555091274E-1;-2.745174193E-1;4.075789976E-1
4.572725667E0;1.082019728E0;-1.059594998E0;5.607450575E-1
4.592884667E0;2.259494960E-1;-1.090855967E0;-3.551750815E-1
4.613043667E0;-8.857821277E-1;2.482148892E-1;-7.632937771E-1
4.633202667E0;-6.211941576E-1;1.362681329E0;-3.395466435E-1
4.653361667E0;-5.643169022E-1;2.759119803E-1;1.145107019E-1
4.673520667E0;-1.044308769E0;6.450414419E-2;-5.252559668E-1
4.693679667E0;-3.475375215E-1;4.004822320E-1;-2.967432708E-1
4.713838667E0;-1.631297153E-1;1.604060823E-1;8.224167287E-2
4.733997667E0;-5.939671095E-1;5.141860181E-1;1.112134570E-1
4.754156667E0;-9.370060026E-1;9.560267758E-1;-2.383383572E-2
4.774315667E0;-4.725137161E-1;1.401747161E-1;-6.056370556E-2
4.794474667E0;-1.140133962E-3;1.961565435E-2;-3.837708896E-1
4.814633667E0;-9.202201813E-3;-1.341760576E-2;-5.931064725E-2
4.834792667E0;1.647796534E-2;5.226124406E-2;1.215127426E-1
4.854951667E0;-2.657772207E-1;4.083812356E-2;5.152624905E-2
4.875110667E0;-2.294391873E-1;1.477106076E-1;-1.427112383E-1
4.895269667E0;1.783777189E-1;1.734342635E-2;-4.014715809E-1
4.915428667E0;1.443514553E-1;8.500448227E-2;-1.388339496E-1
4.935587667E0;1.606465490E-1;1.183131462E-1;4.205960691E-2
4.955746667E0;-1.282197183E-1;1.123834848E-1;-9.567857444E-2
4.975905667E0;-1.879542156E-1;2.646058041E-1;-6.662902236E-2
4.996064667E0;-8.715289548E-2;1.184295058E-2;-1.998028672E-1
5.016223667E0;8.425786592E-2;7.127638936E-2;-3.647083819E-2
5.036382667E0;-1.565386607E-1;-1.302642703E-1;1.193305618E-1
5.056541667E0;-2.465705059E-2;1.523129511E-1;1.585817510E-1
5.076700667E0;-1.073618229E-1;1.724425757E-1;-3.538033247E-2
5.096859667E0;3.386933886E-2;5.602334261E-2;9.163347065E-2
5.117018667E0;2.947858422E-1;1.155041438E-1;1.289492315E-1
5.137177667E0;2.402985632E-1;4.478160274E-1;-5.265651584E-2
5.157336667E0;6.710259566E-1;8.487291992E-2;-3.869734097E-1
5.177495667E0;-2.145936184E-1;-3.060017520E-1;-1.127851886E-1
5.197654667E0;3.652638674E-1;6.235862535E-1;4.102102447E-1
5.217813667E0;-3.423530146E-2;1.788552171E-1;-4.620580906E-1
5.237972667E0;-4.312041608E-1;-1.574573314E-1;-5.441190845E-1
5.258131667E0;-6.657557150E-1;2.412467623E-1;-3.903583628E-1
5.278290667E0;-7.241237180E-1;1.242463160E-1;-6.715649968E-1
5.298449667E0;-4.737053056E-1;2.422021973E-1;-2.963333809E-1
5.318608667E0;1.597742906E-1;5.417386830E-1;2.942886096E-1
5.338767667E0;6.860533740E-1;-1.048651350E-1;5.681961644E-1
5.358926667E0;3.092039797E-1;-3.345016658E-1;1.779483140E-2
5.379085667E0;1.115498912E-1;-5.088475102E-1;-4.091606694E-1
5.399244667E0;-9.426106319E-2;1.489929020E-2;2.731474167E-1
5.419403667E0;-8.305058400E-1;1.240118426E-1;-1.922967964E-1
5.439562667E0;-3.348973031E-1;2.190250039E-2;-9.394662917E-2
5.459721667E0;-1.816540600E-1;-3.534226710E-1;-2.476529717E-2
5.479880667E0;-1.586210735E-1;-9.414309561E-2;2.252546275E-1
5.500038667E0;-2.890044808E-1;-6.020527124E-2;2.964649433E-1
5.520197667E0;-4.010328935E-1;-2.741502142E-1;1.038898194E-1
5.540356667E0;-3.582838999E-1;1.505687267E-1;8.973312557E-2
5.560515667E0;-1.861829478E-1;-1.259519488E-1;2.562513024E-1
5.580674667E0;-3.795383826E-2;-2.941102695E-1;8.549038589E-2
5.600833667E0;-1.221570327E-1;-7.056829154E-2;-2.871158302E-2
5.620992667E0;-2.151147515E-1;-7.974491179E-2;-2.593000406E-1
5.641151667E0;1.258306190E-1;1.856871039E-1;2.664751589E-2
5.661310667E0;4.268234269E-1;-3.283685213E-1;4.961526203E-1
5.681469667E0;3.409525334E-1;-4.312988126E-1;2.287313819E-2
5.701628667E0;1.480388557E-1;2.331822824E-1;-7.366164404E-1
5.721787667E0;8.511835679E-2;1.518960446E-1;-2.162399751E-1
5.741946667E0;-3.332318699E-1;1.388316107E-1;-1.366213632E-1
5.762105667E0;1.071750775E-2;3.332456839E-1;3.043200928E-1
5.782264667E0;3.035435826E-3;1.672110718E-1;5.877825826E-1
5.802423667E0;-3.538468134E-1;3.493945241E-1;4.243084663E-1
5.822582667E0;-7.725654877E-1;6.717825133E-1;-4.387820792E-1
5.842741667E0;-3.123041003E-1;3.213898695E-1;-7.205003446E-1
5.862900667E0;3.574476019E-3;2.037842363E-1;-4.716527867E-1
5.883059667E0;1.293172406E-1;3.930749792E-1;-3.548283416E-1
5.903218667E0;-3.973751678E-1;2.720329374E-1;-3.235890073E-1
5.923377667E0;-5.757039162E-1;6.223858202E-1;-1.299561220E-1
5.943536667E0;-3.169848695E-1;9.353907824E-2;-3.380854243E-1
5.963695667E0;-2.085324678E-1;4.708645821E-2;3.035698950E-2
5.983854667E0;3.522959125E-1;-8.942731619E-2;1.025145543E-1
6.004013667E0;6.799941237E-1;-4.241669637E-1;2.031123912E-1
6.024172667E0;2.874879324E-1;-4.198739380E-1;1.434029639E-2
6.044331667E0;5.423954715E-1;-2.109903449E-1;-4.849136871E-1
6.064490667E0;-3.107323688E-1;-7.581616759E-2;-1.916044861E-1
6.084649667E0;3.169770123E-1;2.629294074E-1;-1.877307057E-1
6.104808667E0;6.987729684E-2;1.120390838E-1;8.498103493E-1
6.124967667E0;-2.078851079E-1;5.028079212E-2;6.297883952E-1
6.145126667E0;-2.657694000E-1;6.273068368E-2;-2.968876970E-1
6.165284667E0;-1.059646454E0;3.854806155E-1;1.062094098E-1
6.185443667E0;-8.335363057E-1;7.266545391E-1;1.872763771E-1
6.205602667E0;-2.611494418E-1;-2.610717469E-1;2.032901466E-1
6.225761667E0;2.244866688E-1;-4.703289771E-1;-2.026370126E-1
6.245920667E0;-3.381883353E-4;-3.567503214E-1;-4.154095888E-2
6.266079667E0;-1.825872756E-1;4.678181827E-2;1.458120167E-1
6.286238667E0;-1.628610358E-2;-2.659448165E-1;2.091209900E-1
6.306397667E0;1.528269944E-1;-3.979153043E-1;-1.482321793E-1
6.326556667E0;-4.986425109E-2;3.136212587E-1;-5.902647257E-2
6.346715667E0;-2.842385615E-1;5.125762796E-1;-6.368144095E-2
6.366874667E0;-2.886593489E-1;6.305970651E-1;-2.691549379E-1
6.387033667E0;9.836639330E-2;-4.280150163E-1;-9.232747668E-1
6.407192667E0;4.341893837E-1;-9.734503090E-2;3.352191192E-1
6.427351667E0;2.410478473E-1;-9.111710304E-1;2.742402613E-1
6.447510667E0;3.669142440E-1;1.134465086E-1;-7.221311331E-4
6.467669667E0;-4.971212116E-1;5.776522815E-1;-1.234867626E-1
6.487828667E0;-8.449184956E-1;3.109952742E-1;1.227008969E-1
6.507987667E0;-6.144956604E-1;6.273717409E-1;1.968430066E-1
6.528147042E0;-4.269242913E-1;4.918829834E-1;4.850534356E-1
6.548306042E0;-1.250466536E-1;1.362085497E-1;4.157516509E-1
6.568464042E0;2.444792858E-1;-4.373009795E-1;2.484405917E-1
6.588623042E0;7.321795732E-2;-4.444848686E-1;9.480967820E-2
6.608782042E0;1.957853184E-1;1.010966045E-1;-8.839534110E-1
6.628941042E0;2.717205134E-1;-9.283799708E-2;-6.269554192E-1
6.649100042E0;-6.813002454E-1;-4.401286930E-1;-4.476224846E-1
6.669259042E0;-1.952401021E-1;9.036953652E-1;-3.978042072E-1
6.689418042E0;-2.521716452E-1;2.614605868E-1;5.293186122E-1
6.709577042E0;-5.015828564E-1;1.676613075E-1;-7.890788287E-1
6.729736042E0;6.350624375E-1;7.627634346E-2;3.017058027E-1
6.749895042E0;1.292655659E-1;1.581075418E-1;-2.715698379E-1
6.770054042E0;1.192869635E-1;1.102363873E-1;-1.521240860E-1
6.790213042E0;9.580516666E-3;-7.830006480E-3;7.828076899E-2
6.810372042E0;-2.022201244E-1;-1.851000434E-1;-2.378875369E-1
6.830531042E0;-1.255266917E-1;-2.017418039E-1;-4.086630714E-1
6.850690042E0;-1.355081264E-1;4.750125968E-1;6.345164537E-2
6.870849042E0;-3.883025914E-1;4.465799260E-1;3.732856625E-1
6.891007042E0;-2.158486867E-2;-4.435598391E-1;-2.095589465E-1
6.911166042E0;9.824157352E-2;-1.708316678E-1;-6.251141310E-2
6.931325042E0;-3.559617513E-1;3.305132800E-1;4.009546870E-1
6.951484042E0;-2.288201134E-1;2.397253168E-1;4.143717080E-1
6.971643042E0;-1.509054897E-1;1.468393725E-1;1.904385513E-1
6.991802042E0;-8.116671709E-2;5.478607178E-2;-9.007928073E-2
7.011961042E0;-6.084269084E-2;6.628812969E-2;-1.147773349E-1
7.032120042E0;1.433056077E-1;4.250305974E-1;2.791870058E-2
7.052279042E0;3.618250468E-1;6.610978961E-2;-2.451006621E-1
7.072438042E0;2.609981999E-1;-9.594871581E-2;-1.739289379E-1
7.092597042E0;3.156275115E-1;-6.099639952E-1;-4.478645593E-1
7.112756042E0;2.360667870E-1;-6.802867037E-1;-2.705243558E-1
7.132915042E0;-2.299933755E-2;4.497403461E-1;2.794799513E-1
7.153073042E0;-1.199205732E-1;4.166310722E-1;1.576052660E-1
7.173232042E0;-3.433725315E-2;1.262583429E-1;-1.484713304E-1
7.193391042E0;-4.220931390E-2;-1.559335470E-2;-2.949674714E-1
7.213550042E0;-1.136153470E-1;9.775024295E-2;-1.180196160E-1
7.233709042E0;-5.827863196E-2;1.446671319E-1;1.800948268E-1
7.253868042E0;1.857864883E-1;2.749278939E-1;1.426749855E-1
7.274027042E0;-3.265904196E-1;-7.874620736E-2;-2.203967607E-1
7.294186042E0;-1.200879224E-1;-5.465275526E-2;5.419433355E-2
7.314345042E0;-6.382652499E-2;2.741525531E-2;-2.924134076E-2
7.334504042E0;-1.210415484E-1;5.234310508E-2;-1.649680799E-1
7.354663042E0;-1.242162942E-1;-4.391142011E-2;2.362099707E-2
7.374822042E0;-6.305794504E-2;-6.301544309E-3;5.199753463E-2
7.394980042E0;-9.891835218E-2;4.211164713E-3;1.148054016E-1
7.415139042E0;-8.108249892E-2;7.208564401E-2;-6.451233029E-3
7.435298042E0;-2.220940064E-1;-1.661790383E-1;3.230995953E-2
7.455457042E0;-3.971329834E-1;9.379167795E-2;2.001355737E-1
7.475616042E0;-2.019289513E-1;2.441329479E-2;1.373493415E-1
7.495775042E0;-5.138608764E-1;-8.371049345E-2;1.959419507E-1
7.515934042E0;-3.538744780E-1;-5.318978190E-2;-7.255692959E-2
7.536093292E0;-3.691924654E-2;7.957768142E-2;-2.275274402E-1
7.556252292E0;-4.919763196E-2;2.784835857E-1;7.337495506E-2
7.576411292E0;-6.970549833E-1;-8.144118905E-2;3.180405843E-1
7.596570292E0;-3.738174303E-1;-2.187560320E-2;-9.078562438E-2
7.616728292E0;-1.698227673E-1;-5.377157986E-2;-2.064634305E-1
7.636887292E0;-7.352340125E-2;1.112625736E-1;-1.783605427E-1
7.657046292E0;-1.067411045E-1;8.891042233E-2;-2.394785643E-2
7.677205292E0;-1.826743991E-1;1.523702538E-1;-7.028002381E-2
7.697364292E0;-1.389045912E-1;1.104123884E-1;-2.198979932E-1
7.717523292E0;-2.941501220E-2;6.811246097E-2;-2.811195105E-1
7.737682292E0;3.711675452E-3;-5.240274668E-2;-7.933092892E-2
7.757841292E0;5.872961674E-2;5.146836162E-2;2.144466341E-2
7.778000292E0;1.494906463E-2;1.586121565E-1;-7.325567186E-2
7.798159292E0;7.067958964E-2;4.059751064E-1;-1.415482271E-1
7.818317292E0;1.184319178E-1;2.638614535E-2;-9.869281411E-2
7.838476292E0;1.620255235E-1;5.088188589E-2;2.048338115E-2
7.858635292E0;6.658118483E-2;-3.608258307E-2;-2.421916723E-2
7.878794292E0;4.222506484E-2;-9.992891550E-3;-2.236384571E-2
7.898953292E0;-2.219608543E-2;2.801342547E-2;-5.349734545E-2
7.919112292E0;-9.167245514E-2;3.226142764E-2;3.019151330E-2
7.939271292E0;-2.727874110E-1;5.508018672E-2;1.181277895E-1
7.959430292E0;-3.634768121E-1;1.293766630E-1;1.097095531E-1
7.979589292E0;-3.836343937E-1;7.525658906E-2;1.515042812E-1
7.999748292E0;-3.178920650E-1;1.022385657E-2;6.719503284E-2
8.019906292E0;-1.863289637E-1;-3.421498239E-2;-3.403839648E-2
8.040065292E0;-2.134323249E-2;-9.384898067E-2;-1.782798511E-1
8.060224292E0;1.905815888E-2;7.492914498E-2;-1.288170844E-1
8.080383292E0;8.202941895E-2;2.743630528E-2;-1.779705334E-1
8.100542292E0;9.970937083E-2;2.588094592E-1;-5.607772171E-2
8.120701292E0;4.458856422E-2;3.236550808E-2;-2.198225641E-1
8.140860292E0;-1.646406541E-1;6.436030269E-3;-1.050165778E-1
8.161019292E0;-1.724394328E-1;2.068844301E-1;3.235381365E-2
8.181177292E0;-1.947893914E-1;1.873956603E-1;3.698246956E-2
8.201336292E0;-1.901341306E-1;1.054709065E-1;5.932292640E-2
8.221495292E0;-1.237414728E-1;5.491120219E-3;-3.997624397E-2
8.241654292E0;-1.001110563E-1;-3.289058805E-3;-3.445588768E-2
8.261813292E0;-4.761922178E-2;-2.382389545E-2;7.292764306E-2
8.281972292E0;-9.862078372E-2;-6.228688002E-2;-1.081734896E-1
8.302131292E0;1.384947745E-1;-7.768727660E-2;-5.170108080E-3
8.322290292E0;2.660194416E-2;1.153819370E-1;4.191635013E-2
8.342449292E0;-5.032212462E-2;-2.111897349E-2;3.103117347E-3
8.362607292E0;9.923538091E-3;-3.011900783E-3;-1.096294463E-2
8.382766292E0;-8.000571588E-2;1.944503260E-1;-1.688132089E-1
8.402925292E0;-3.642309202E-2;1.650318146E-1;-1.945485592E-1
8.423084292E0;-1.049429029E-2;1.283218253E-1;3.873955786E-2
8.443243292E0;-2.041865978E-2;6.490292430E-2;2.172965670E-1
8.463402292E0;-2.861154081E-1;1.101311374E-1;-9.121130168E-2
8.483561292E0;-2.452363358E-1;-4.068200290E-2;-1.777921933E-1
8.503720292E0;-1.825318732E-1;1.608300054E-1;2.058500576E-1
8.523877792E0;-4.632412747E-2;-5.076611102E-2;8.866542399E-2
8.544036792E0;-1.486687470E-2;-4.565038204E-2;1.155906826E-1
8.564195792E0;-6.539074654E-2;2.059330881E-2;-1.557943833E-1
8.584354792E0;-1.442946094E-1;8.988983095E-2;5.949600399E-2
8.604513792E0;-3.010951158E-1;1.195931017E-2;6.244300067E-2
8.624672792E0;-2.419547505E-1;8.180839419E-3;3.624688983E-3
8.644831792E0;-7.332170885E-2;1.413915217E-2;-7.653479040E-2
8.664990792E0;3.963209879E-2;-1.696101844E-2;-1.811175048E-2
8.685148792E0;3.424036296E-2;1.596172929E-2;-4.551881969E-2
8.705307792E0;-1.583522843E-2;7.680493176E-2;4.995276332E-3
8.725466792E0;-8.323575435E-2;5.258927286E-2;-4.188360572E-3
8.745625792E0;-1.031038805E-1;7.949991345E-2;-4.207013190E-2
8.765784792E0;-2.151892304E-2;1.580736279E-2;-1.968699038E-2
8.785943792E0;-5.584986303E-3;3.154572845E-2;1.831464887E-2
8.806102792E0;-1.671570947E-2;-2.988570392E-2;6.494443953E-2
8.826260792E0;-6.948578920E-2;1.482070363E-1;-3.900326729E-2
8.846419792E0;9.787526373E-3;1.792838180E-1;-1.259145266E-1
8.866578792E0;1.102560120E-2;2.596637374E-1;-1.489917326E-1
8.886737792E0;1.007800691E-1;1.276236677E-1;-2.762698299E-1
8.906896792E0;8.224496193E-2;1.116198385E-1;-2.192489523E-1
8.927055792E0;2.013428411E-2;2.715330005E-2;-2.012570697E-1
8.947214792E0;1.370974727E-2;-1.740131378E-3;-1.233686489E-1
8.967372792E0;-1.488442000E-1;5.944630265E-2;7.420642912E-2
8.987531792E0;-3.020468963E-1;2.077568346E-1;2.651776618E-1
9.007690792E0;-4.216921297E-1;1.631343931E-1;3.301033902E-1
9.027849792E0;-3.559339039E-1;-2.680363655E-3;6.987890482E-2
9.048008792E0;-2.337624176E-1;-1.036781502E-1;6.544203758E-3
9.068167792E0;-1.082550034E-1;-5.842479408E-2;5.089358032E-2
9.088326792E0;-2.379645009E-2;-1.607019514E-1;-6.285172105E-3
9.108484792E0;6.252922883E-2;-3.213559556E-1;-6.544379175E-2
9.128643792E0;7.164639020E-2;-3.083821535E-3;1.194404894E-1
9.148802792E0;-6.850053336E-2;1.946947396E-2;-3.701872230E-2
9.168961792E0;2.259766124E-3;4.058903217E-2;-1.085634989E-1
9.189120792E0;-3.768928830E-2;1.210379487E-1;-2.340850925E-1
9.209279792E0;-8.841881767E-2;1.452805048E-1;-1.334100723E-1
9.229437792E0;-1.378898435E-1;2.081064981E-1;3.368230104E-2
9.249596792E0;-2.936595040E-1;4.176104808E-1;2.141425788E-1
9.269755792E0;-2.715896271E-1;1.256782991E-1;-1.221758169E-1
9.289914792E0;-6.824259806E-2;3.539962828E-2;-1.126431012E-1
9.310073792E0;-1.552887636E-1;2.797115010E-1;5.603971481E-2
9.330232792E0;-2.027412392E-2;1.808309913E-1;4.298288226E-3
9.350391792E0;2.235035691E-1;-1.356045324E-1;-2.365403384E-1
9.370549792E0;1.961367543E-1;-9.241231978E-2;-1.706837332E-1
9.390708792E0;2.080509678E-1;-2.804342169E-1;-1.762695783E-1
9.410867792E0;1.459946874E-1;3.096656173E-1;6.010294497E-2
9.431026792E0;-1.894892558E-2;2.048916990E-1;-2.086286545E-3
9.451185792E0;-1.578970055E-1;1.345122725E-1;-8.271354318E-2
9.471344792E0;-1.244968874E-1;8.557926357E-2;4.810445845E-2
9.491502792E0;-1.044597402E-1;9.319818556E-2;1.304221451E-1
9.511661792E0;-1.093178262E-1;1.035074115E-2;7.969813406E-2
9.531820958E0;-1.112759857E-1;-4.213445127E-2;-4.123456478E-2
9.551979958E0;-1.252513701E-1;8.539273739E-3;-8.197036207E-2
9.572138958E0;-1.145968570E-1;-9.210884929E-2;-1.787213159E-1
9.592297958E0;-6.410763902E-2;1.458178639E-1;3.750696480E-2
9.612455958E0;-1.221451830E-1;8.115935326E-2;-3.470030129E-2
9.632614958E0;-1.224470363E-1;-2.568389475E-2;-4.070773065E-2
9.652773958E0;3.672137311E-2;-6.804638743E-2;1.034927934E-1
9.672932958E0;-2.182234055E-1;6.790371537E-2;3.116905081E-1
9.693091958E0;-7.301477388E-1;1.661445397E-1;5.312212962E-1
9.713250958E0;-5.859753545E-1;-7.307908595E-2;1.073040671E0
9.733408958E0;1.941642509E-1;-3.400652915E-1;-7.067780989E-1
9.753567958E0;2.264673583E-1;-1.998595852E-1;-3.754976642E-1
9.773726958E0;-1.872753721E-1;-4.054149431E-1;-1.162870860E-1
9.793885958E0;2.632635575E-1;1.617468488E-1;4.117264277E-1
9.814044958E0;4.617454838E-1;1.962711489E-1;5.387139183E-1
9.834203958E0;8.120097812E-2;7.101209521E-2;7.954142869E-2
9.854361958E0;4.749907429E-1;1.851795655E-1;-1.236200792E-1
9.874520958E0;1.582404198E-1;4.278980720E-1;-2.287547708E-1
9.894679958E0;-1.719912620E-1;3.528385341E-1;-4.551180303E-1
9.914838958E0;-2.990976430E-2;1.794709289E-1;-1.744429082E-1
9.934997958E0;1.345962988E-1;3.118021899E-1;-5.102806628E-2
9.955155958E0;4.775524446E-1;9.135748208E-2;3.499663818E-1
9.975314958E0;5.070875714E-1;-3.877347171E-2;-9.331571460E-3
9.995473958E0;-1.133519208E-1;-4.348287767E-1;-7.343559068E-1
1.001563296E1;1.798599880E-1;2.527412188E-1;4.790974617E-2
1.003579196E1;-7.612794113E-1;-5.035037398E-2;-2.083275229E-1
1.005595096E1;-3.749863252E-1;2.371233058E-1;-3.830920279E-2
1.007610896E1;-2.605964414E-1;-4.500835776E-2;-2.348335361E-1
1.009626796E1;-9.079030216E-2;1.578765768E-1;-1.149960208E-1
1.011642696E1;3.971745352E-1;2.900341755E-1;2.795337456E-1
1.013658596E1;3.277310286E-1;3.268885911E-2;1.824062312E-1
1.015674496E1;4.063681854E-1;-2.641643393E-1;-9.951727152E-2
1.017690296E1;1.686483540E-1;-3.713666064E-1;-7.555304289E-2
1.019706196E1;-4.415087455E-1;-6.946749473E-1;-2.560349554E-1
1.021722096E1;-8.436986934E-1;-7.596948159E-1;-3.526496691E-1
1.023737996E1;-6.047545646E-1;1.157111353E-1;2.119130355E-1
1.025753896E1;-7.194320583E-1;4.127040821E-1;5.924644482E-1
1.027769696E1;-7.285351498E-1;3.805566752E-1;2.410409403E-1
1.029785596E1;-8.349712855E-1;3.251776958E-1;4.515161455E-2
1.031801496E1;-7.773626165E-1;1.999624962E-1;2.017435580E-1
1.033817396E1;-5.556791029E-1;1.623415107E-1;1.795510358E-1
1.035833296E1;-1.373755535E-1;-1.534718692E-2;2.484230500E-1
1.037849196E1;1.246697640E-2;-2.427588522E-1;-1.560428900E-1
1.039864996E1;9.746287057E-2;-1.905280137E-1;-3.396454614E-1
1.041880896E1;-9.272795522E-3;-2.400907677E-1;-3.122419006E-1
1.043896796E1;1.634409950E-2;-7.102905214E-2;-1.719590110E-1
1.045912696E1;2.959519780E-1;1.151106262E-1;7.277503073E-2
1.047928596E1;-4.662770759E-3;-9.104231715E-2;-2.168773216E-1
1.049944396E1;2.837788608E-1;7.415380418E-2;-2.576347536E-1
1.051960296E1;7.000260267E-1;1.977925944E-1;1.588138855E-1
1.053976204E1;2.350691789E-1;-8.120496154E-2;-5.389320195E-2
1.055992104E1;1.499470032E-1;6.487661183E-2;1.757205248E-2
1.058008004E1;-1.806673606E-1;-9.342973530E-2;-3.536898887E-1
1.060023804E1;-1.665674761E-1;-1.251304150E-1;-3.049147546E-1
1.062039704E1;-5.734885158E-2;-1.512253690E-1;-2.088561112E-1
1.064055604E1;2.575717864E-1;1.058638394E-2;-1.769882011E-1
1.066071504E1;3.019312128E-1;7.858657837E-4;-2.057974327E-1
1.068087404E1;1.845725880E-1;1.733114719E-1;-1.918243414E-1
1.070103204E1;6.933793687E-2;3.846719456E-1;-2.055325538E-1
1.072119104E1;-7.769466785E-2;4.568172312E-1;-1.933580661E-1
1.074135004E1;-1.116826412E-1;5.258336717E-1;-6.693190813E-2
1.076150904E1;4.948069202E-2;3.923738980E-1;3.385011613E-2
1.078166704E1;5.961123068E-2;3.171857214E-1;3.695849597E-2
1.080182604E1;5.692925904E-2;2.973952353E-2;-2.077866554E-2
1.082198504E1;-1.224942343E-1;1.420581043E-2;-7.149975300E-3
1.084214404E1;-1.952166401E-1;-1.976183474E-2;1.907887995E-2
1.086230304E1;-8.630844790E-2;-6.914332509E-2;-6.764059067E-3
1.088246104E1;3.603598807E-2;2.237495542E-2;-6.257982552E-2
1.090262004E1;1.606998683E-1;-1.646839052E-1;-1.812654394E-1
1.092277904E1;1.177283881E-1;-1.947689992E-1;-2.317415285E-1
1.094293804E1;1.106993040E-1;-1.563826132E-1;-1.713228339E-1
1.096309704E1;2.491920320E-1;-1.097575003E-1;-2.104079622E-1
1.098325504E1;3.634102269E-1;-4.261450768E-3;-2.390142953E-1
1.100341404E1;2.804923967E-1;-2.620780528E-2;-2.113932180E-1
1.102357304E1;1.700896196E-1;2.470512933E-1;-1.621082067E-1
1.104373204E1;1.862310411E-1;6.645226103E-1;-1.469118780E-1
1.106389004E1;1.470000613E-1;7.457269871E-1;-4.691805840E-3
1.108404904E1;-2.212038226E-2;9.519980443E-1;-1.081384063E-2
1.110420804E1;1.162300757E-1;2.223531221E0;-6.357648343E-1
1.112436704E1;-1.527158973E-1;1.271292272E0;-1.025181211E0
1.114452604E1;-5.081274256E-2;4.956018126E-1;-4.611272138E-1
1.116468404E1;2.665599436E-4;2.927759349E-2;-7.638977945E-2
1.118484304E1;1.904237871E-1;-6.913046122E-1;-2.080146968E-2
1.120500204E1;1.205692213E-1;6.007803583E-1;-1.358562550E0
1.122516104E1;2.396903066E-1;7.617986441E-1;-4.618347269E-1
1.124531904E1;1.218583131E-1;5.094339859E-1;6.310022771E-2
1.126547804E1;9.538453259E-2;1.111286724E-1;-2.302230066E-1
1.128563704E1;-1.493169109E-1;1.321371335E-1;-4.935599649E-1
1.130579604E1;-2.197814874E-2;4.077953446E-1;-5.989338076E-1
1.132595504E1;2.021212151E-1;8.750989723E-1;-4.600560039E-1
1.134611304E1;8.012074158E-2;6.284376884E-1;-5.169266081E-1
1.136627204E1;8.360458575E-2;6.185471231E-1;-4.616335827E-1
1.138643104E1;4.531365551E-2;2.840717697E-1;-5.889871091E-1
1.140659004E1;2.688549757E-2;3.867102849E-1;-6.009657151E-1
1.142674804E1;1.082378089E-1;4.076023865E-1;-5.696644002E-1
1.144690704E1;7.596512541E-2;6.304467916E-1;-7.026218981E-1
1.146706604E1;-1.346846192E-1;4.105727720E-1;-8.299005800E-1
1.148722504E1;-5.624911822E-2;8.469925761E-2;-9.517454445E-1
1.150738304E1;1.991210818E-1;-7.053794450E-1;-1.440256339E0
1.152754217E1;2.212157363E-1;4.792331171E-1;-5.744649643E-1
1.154770117E1;-2.508144882E-1;2.194913778E0;-1.185470349E-1
1.156786017E1;-4.904863760E-1;9.430085349E-1;-6.784009767E-1
1.158801817E1;3.887272820E-2;-2.554180741E-2;-1.391430334E0
1.160817717E1;4.547376689E-1;2.335570890E-1;-1.087961011E0
1.162833617E1;1.446650123E-1;3.381111521E-1;-6.366156042E-1
1.164849517E1;2.199425051E-1;1.281790947E0;-4.527311969E-1
1.166865317E1;2.257992225E-1;6.255754763E-1;-6.453343874E-1
1.168881217E1;1.824377330E-1;7.118891501E-1;-4.958210832E-1
1.170897117E1;7.266707651E-2;1.007836030E0;-5.001877838E-1
1.172913017E1;-1.185131941E-1;1.053416246E0;-5.401248515E-1
1.174928917E1;-1.649493688E-1;9.808908910E-1;-5.841204715E-1
1.176944717E1;-1.661452706E-1;7.000093621E-1;-4.094389969E-1
1.178960617E1;1.413945184E-1;4.689806092E-1;-6.133828622E-1
1.180976517E1;6.315869987E-2;5.512883556E-1;-1.214283088E0
1.182992417E1;-7.887309194E-3;7.024470663E-1;-1.286216120E0
1.185008217E1;-2.249840476E-2;5.414398903E-1;-1.128215582E0
1.187024117E1;-7.060293630E-2;8.834312546E-1;-6.727326858E-1
1.189040017E1;-2.679261820E-1;1.044255413E0;-6.317337638E-1
1.191055917E1;-2.895327768E-1;1.155750706E0;-7.161435843E-1
1.193071717E1;-2.038054873E-1;1.719807626E0;-4.982453388E-1
1.195087617E1;-4.588701155E-1;1.615439504E0;-2.350533915E-1
1.197103517E1;-6.367343026E-1;7.402013683E-1;-7.283864844E-1
1.199119417E1;-9.842175912E-1;5.193204582E-1;-6.427136654E-1
1.201135217E1;-7.676572618E-1;4.547455627E-1;-6.200656450E-1
1.203151117E1;-5.391836690E-1;1.641611642E-1;-5.995992208E-1
1.205167017E1;-6.077290432E-1;7.855044258E-1;-7.497010472E-1
1.207182817E1;-6.036006166E-1;1.479507528E0;-1.042938035E0
1.209198717E1;3.104010509E-1;1.180202592E0;-1.378436359E0
1.211214617E1;4.810090627E-1;8.461377132E-1;-7.841771078E-1
1.213230517E1;5.636461535E-1;7.796268046E-1;-1.149585986E-1
1.215246317E1;1.164116025E0;1.138675666E0;-2.607308543E-1
1.217262217E1;8.434450704E-1;8.092324269E-1;-4.577007455E-1
1.219278117E1;1.076436441E0;2.681848848E-1;-1.226574520E0
1.221294017E1;7.937805748E-1;-1.695064548E0;-1.936013687E0
1.223309817E1;9.547634849E-1;-2.497491986E0;-1.175987919E0
1.225325717E1;2.253142691E-1;-1.101738220E0;-9.643444401E-1
1.227341617E1;7.385732111E-1;4.848096067E-1;-4.773468053E-1
1.229357517E1;1.144966686E-1;7.573834115E-1;-1.037307751E-1
1.231373317E1;-1.206484657E0;5.174014020E-1;1.170179880E0
1.233389217E1;-2.159962339E0;8.176489091E-1;1.606762821E0
1.235405117E1;-1.381359090E0;3.438876164E-1;9.034734634E-1
1.237421017E1;-2.053445366E0;-5.968790960E-1;3.900233173E-1
1.239436817E1;-2.715330882E0;3.691382325E-1;-8.405506986E-1
1.241452717E1;-1.622957562E0;9.557858706E-1;-1.364078813E0
1.243468617E1;-4.812533301E-1;7.118078738E-1;-5.375462294E-1
1.245484417E1;1.195749754E0;1.324113679E-1;-3.904536724E-2
1.247500317E1;2.234743550E0;-8.136125761E-1;-1.355374648E0
1.249516217E1;5.989452097E-1;2.180777550E-2;-9.481166625E-1
1.251532117E1;1.563850105E0;1.335270166E0;-2.207501957E0
1.253547954E1;1.342682097E0;1.520345067E0;-2.007187750E0
1.255563854E1;1.120925859E0;1.566242201E0;-1.876708887E0
1.257579754E1;-5.775835767E-1;6.854731840E-1;-1.033253877E0
1.259595554E1;-1.514449027E0;1.847135425E-1;-1.110101493E0
1.261611454E1;-8.099627441E-1;1.302286023E0;-1.068422832E0
1.263627354E1;-2.995689377E-1;1.785150846E0;-1.191470761E0
1.265643254E1;6.080031314E-1;1.555217861E0;-1.422232296E0
1.267659054E1;1.400100585E0;8.465166128E-1;-1.225568799E0
1.269674954E1;1.254518656E0;-1.121891819E0;-4.976226103E-1
1.271690854E1;7.608443785E-1;-7.559941131E-1;-4.176487800E-1
1.273706754E1;1.809803876E-1;7.256570041E-1;-1.650642666E-1
1.275722554E1;-8.633963549E-1;1.649605370E0;-9.796273077E-1
1.277738454E1;-5.448146108E-1;1.685683275E0;-5.513327944E-1
1.279754354E1;-8.048876533E-1;1.308419752E0;-5.235956499E-1
1.281770154E1;-9.191252902E-1;9.874350947E-1;-3.768422315E-1
1.283786054E1;-3.527575502E-1;3.685956109E-1;-4.726392120E-1
1.285801954E1;1.403460395E-1;5.159436911E-1;-1.154894673E0
1.287817754E1;5.437384307E-1;7.298792785E-1;-1.184614316E0
1.289833654E1;1.186650901E0;7.967100298E-1;-1.407937316E0
1.291849554E1;7.908853260E-1;4.557623935E-1;-1.300917482E0
1.293865454E1;5.727903217E-1;-1.270933253E-1;-1.308174461E0
1.295881254E1;9.328943136E-1;-6.337247407E-1;-1.531739244E0
1.297897154E1;1.660353722E0;1.044143146E-1;-1.447431457E0
1.299913054E1;1.195056274E0;1.268194417E0;-7.757056618E-1
1.301928854E1;1.410436124E-1;2.974510177E0;-6.936660102E-1
1.303944754E1;-1.221451190E0;3.377124889E0;-5.871629240E-1
1.305960654E1;-1.474271931E0;1.847286283E0;-1.936589346E0
1.307976454E1;-2.614465535E-1;-2.180610904E0;-4.735220246E0
1.309992354E1;2.045486136E0;-5.358468531E0;-4.485344163E0
1.312008254E1;1.404103589E0;-3.835301013E0;-1.680542403E0
1.314024154E1;2.913504422E0;-5.505533606E-1;1.642763543E0
1.316039954E1;9.032109234E-1;-2.252078497E-1;4.347416532E-1
1.318055854E1;-7.716868705E-1;1.980511583E0;-5.641172929E-1
1.320071754E1;-1.479980275E0;3.051636706E0;-1.372275879E0
1.322087554E1;-2.550943138E0;2.411605743E0;-2.343424870E0
1.324103454E1;-1.695649855E0;1.147387433E0;-2.003071457E0
1.326119354E1;-1.300601148E0;-8.704562831E-1;-1.160769371E0
1.328135154E1;1.833429551E-1;-1.951846193E0;-9.668732878E-1
1.330151054E1;-3.109166291E-1;-1.236515957E0;7.193060508E-1
1.332166954E1;-6.998210818E-1;-9.691876888E-2;4.017469847E-1
1.334182854E1;-1.468397818E0;6.548682725E-1;5.701970816E-2
1.336198654E1;-2.067063823E0;9.594485664E-1;-1.382698102E0
1.338214554E1;-1.625981449E0;3.256524897E-1;-1.151597428E0
1.340230454E1;-1.078629439E0;-9.116393924E-1;-9.424964650E-1
1.342246254E1;-8.260612983E-1;-1.245309584E0;-3.862202883E-2
1.344262154E1;2.847956550E-1;-1.109981040E0;2.404119261E-1
1.346278054E1;-6.193370819E-2;-2.944850761E-1;-7.849199966E-2
1.348293854E1;-4.447488704E-1;4.982862693E-1;-9.651800072E-1
1.350309754E1;-1.436186677E0;8.421656996E-1;-2.038746196E0
1.352325654E1;-1.363127179E0;1.162911206E0;-1.771293529E0
1.354341417E1;-9.489051595E-1;1.595160776E0;-1.589695383E0
1.356357317E1;-1.195752385E0;1.527668704E0;-1.509601977E-1
1.358373217E1;-1.289933780E0;7.664109278E-1;-4.033618395E-1
1.360389017E1;-5.599322945E-1;-1.861817783E-1;-8.575301358E-1
1.362404917E1;5.922937095E-3;-5.210418785E-1;-1.311706180E0
1.364420817E1;1.839841023E-1;-1.489116257E-1;-1.557137209E0
1.366436617E1;8.092373970E-1;-8.720186591E-2;-1.178116598E0
1.368452517E1;2.329070540E0;-7.351528823E-2;-1.747582777E0
1.370468417E1;1.449680589E0;-2.081471947E0;-2.702090739E0
1.372484317E1;1.435808069E0;-3.498201429E0;-3.030365997E0
1.374500117E1;-1.762116909E-2;-2.247725830E0;-2.231818772E0
1.376516017E1;-1.155095233E0;-5.418573815E-1;-1.082977137E0
1.378531917E1;-1.399858218E0;1.004639942E0;1.027419525E0
1.380547717E1;-2.010001723E0;2.279779097E0;2.276411685E0
1.382563617E1;-1.418180761E0;2.039198332E0;1.498672362E0
1.384579517E1;-3.949297160E-1;6.188429922E-1;5.309417993E-1
1.386595317E1;-5.612677985E-1;4.075860143E-2;-9.377115422E-1
1.388611217E1;-7.616276130E-1;-1.401648928E0;-2.401394166E0
1.390627117E1;-5.331122857E-1;-1.577047271E0;-2.448116342E0
1.392642917E1;-4.472389072E-1;-9.798617810E-1;-7.596755201E-1
1.394658817E1;6.790839314E-2;1.490776867E-1;-7.124934599E-1
1.396674717E1;7.345716691E-1;-1.228681272E-1;-4.273750386E-1
1.398690517E1;3.333766615E-1;6.878196716E-2;-8.393324313E-1
1.400706417E1;2.086687079E-1;1.481280988E-1;-1.000137586E0
1.402722317E1;-1.700855631E-1;3.604001534E-1;-1.584668532E0
1.404738117E1;3.369829318E-1;9.015412509E-2;-2.003897522E0
1.406754017E1;-3.136525413E-1;-7.817604536E-1;-3.767708369E0
1.408769917E1;-1.618538529E-1;-1.785294102E0;-3.651097932E0
1.410785717E1;9.515206191E-1;9.525342339E-1;2.074095393E0
1.412801617E1;1.317124794E0;4.481364548E-2;2.191855100E-1
1.414817417E1;1.965143054E0;-1.599582440E0;-6.903462535E-1
1.416833317E1;-5.257787079E-2;-1.481351740E0;-1.410558330E0
1.418849217E1;-1.129920923E0;-4.509056962E-1;-2.831553648E0
1.420865017E1;-1.955272954E0;-4.133040065E-1;-2.402668566E0
1.422880917E1;-2.390263991E0;2.235940182E-1;-2.672761982E0
1.424896817E1;-2.586732191E0;2.123935012E0;-2.283547335E0
1.426912617E1;-8.040640730E-1;2.567270903E0;-7.633078104E-1
1.428928517E1;6.478403579E-1;1.168425715E0;-4.272291505E-1
1.430944417E1;8.300558236E-1;1.513305604E0;-7.080940148E-1
1.432960217E1;1.237524894E0;2.149859812E0;-1.027988167E0
1.434976117E1;1.070535431E0;2.362181568E0;-1.401155423E0
1.436992017E1;1.170493290E0;2.336897623E0;-1.206317134E0
1.439007817E1;5.455884898E-1;2.646117098E0;-1.812478977E0
1.441023717E1;-2.519620773E-1;2.041805606E0;-1.611240911E0
1.443039617E1;-5.726035032E-1;1.224872396E0;-7.932522789E-1
1.445055417E1;-2.165796983E-1;1.007198099E0;-4.400430313E-1
1.447071317E1;-7.519060323E-1;7.634212464E-1;-9.341906413E-1
1.449087217E1;-1.183254254E-1;1.885748683E0;-1.306451872E0
1.451103017E1;-2.663809018E0;-9.804967886E-1;9.575450054E-1
1.453118892E1;-2.315876883E0;-1.565862132E0;-1.974331953E0
1.455134692E1;-3.999359559E0;-3.527045159E0;5.140632266E-1
1.457150592E1;-4.639100207E0;-3.027795854E0;1.220165387E0
1.459166492E1;-4.132387515E0;-1.374738872E0;1.910051465E-1
1.461182292E1;-1.857301686E0;-7.825738013E-2;-1.524541613E-1
1.463198192E1;-2.912702769E-2;5.715787786E-1;3.411318237E-1
1.465214092E1;1.446748210E0;2.159704185E-1;2.928893709E-1
1.467229892E1;1.948726411E0;1.259455168E-1;1.140420476E-1
1.469245792E1;1.159565429E0;2.666915059E-1;1.623213378E-1
1.471261692E1;-1.947766006E-1;8.873430419E-1;-2.101883993E-1
1.473277492E1;-1.589571422E-1;8.737658072E-1;-5.193002853E-1
1.475293392E1;9.151962537E-1;3.295034659E-1;-7.007864571E-1
1.477309192E1;9.700779274E-1;9.253920436E-2;-4.987487841E-1
1.479325092E1;1.412459260E-1;-4.260807574E-2;5.186714172E-2
1.481340992E1;-6.871063113E-3;5.362072170E-2;1.586563030E-1
1.483356792E1;-2.247447503E-1;-3.196661103E-1;1.192647806E-1
1.485372692E1;-4.648375645E-1;-1.917723012E-1;-3.122530103E-2
1.487388592E1;-6.428455201E-1;8.473083258E-2;2.801705074E-1
1.489404392E1;2.804238380E-1;5.386624628E-1;8.887010577E-1
1.491420292E1;1.754214397E-1;6.798493320E-1;1.308087630E0
1.493436192E1;-4.135022271E-1;4.174923670E-1;5.205381408E-1
1.495451992E1;-1.526148136E-1;-5.673798931E-1;-2.231472909E-2
1.497467892E1;1.322638719E0;-9.894073606E-1;-3.736692399E-2
1.499483692E1;5.338081044E-1;-1.548653777E0;7.819525346E-1
1.501499592E1;-6.626576409E-2;-1.617680157E0;7.201079965E-1
1.503515492E1;-4.721593018E-1;-1.433980522E0;6.060735503E-1
1.505531292E1;-4.783804469E-1;-5.768775254E-1;3.570008746E-1
1.507547192E1;-1.904493687E-1;4.555828840E-1;1.992435518E0
1.509563092E1;8.942456800E-1;4.481756312E-1;1.339325795E0
1.511578892E1;1.893154474E-1;-1.867569689E0;-5.380338871E-1
1.513594792E1;1.089365512E-1;-3.254228695E0;-3.393264958E-1
1.515610592E1;-2.577363490E-1;-2.517210551E0;-1.514306062E-1
1.517626492E1;-1.560404049E-1;-9.001379192E-1;3.676340362E-1
1.519642392E1;4.114983863E-1;-1.738201797E-2;6.996213993E-1
1.521658192E1;7.639049573E-1;-5.773189902E-2;1.502184784E-1
1.523674092E1;-1.446297097E-1;8.087371677E-1;2.491469353E-1
1.525689892E1;-1.397414813E0;4.028020563E0;5.437489557E-1
1.527705792E1;-6.706858680E-2;1.657031919E0;3.932603359E-2
1.529721692E1;1.898006201E-3;9.430243224E-1;3.538582885E-1
1.531737492E1;-1.295488635E-1;9.438008326E-1;9.916506448E-1
1.533753392E1;1.643818966E-1;1.047404723E0;2.495287585E-1
1.535769192E1;1.151365001E-1;9.915445179E-1;-3.453529286E-1
1.537785092E1;1.877114099E-1;8.176886702E-1;2.752342880E-2
1.539800992E1;3.377709903E-1;2.116610205E-1;-3.998904938E-1
1.541816792E1;7.476089135E-2;-4.861608982E-2;-6.191792071E-2
1.543832692E1;-2.462038855E-1;6.042138433E-1;4.294888070E-1
1.545848592E1;-5.680863829E-1;1.149186621E0;5.670401698E-1
1.547864392E1;-4.480792983E-1;2.880203944E-1;4.004576737E-1
1.549880292E1;-2.418779692E-1;-6.576550555E-1;2.941874528E-1
1.551896092E1;6.912857549E-1;-6.639489985E-1;3.698632872E-1
1.553912029E1;7.209517497E-1;-4.166760957E-1;1.138413419E0
1.555927929E1;-6.933910449E-1;9.836946309E-2;1.045582731E0
1.557943729E1;-3.979248060E-1;1.604259628E-1;2.985638013E-1
1.559959629E1;5.310052416E-1;-7.809383351E-1;5.846654320E-1
1.561975429E1;4.461063015E-1;1.142151836E0;1.095294589E0
1.563991329E1;-4.449921146E-2;2.401227520E0;9.364532214E-1
1.566007229E1;5.383065136E-1;1.828227868E0;-4.878311554E-1
1.568023029E1;4.784874509E-1;5.862055886E-1;-9.827511826E-1
1.570038929E1;1.036580065E0;6.599296224E-1;-1.295932731E0
1.572054729E1;1.063389257E-2;7.662056905E-1;-7.594191197E-1
1.574070629E1;-1.735914074E-1;4.654383659E-2;-6.490359673E-1
1.576086529E1;1.191093470E0;-2.585352248E-1;-1.556946883E-1
1.578102329E1;3.921340160E-1;-1.067626149E0;-5.156720880E-1
1.580118229E1;1.049867132E0;-2.715862101E-1;-4.685119548E-1
1.582134029E1;7.391835143E-1;1.998473060E-1;-1.876254559E-2
1.584149929E1;2.911191264E-1;1.054146563E0;4.396170616E-2
1.586165729E1;6.540578485E-2;1.762882310E0;4.119437979E-1
1.588181629E1;-1.601046583E-1;2.076443342E0;6.390442452E-1
1.590197529E1;-1.217464851E-1;1.908421261E0;3.228785706E-1
1.592213329E1;2.348993173E-1;9.534499079E-1;7.554807276E-2
1.594229229E1;4.845711865E-1;-2.217462981E-1;5.092500910E-1
1.596245029E1;6.602307540E-1;-8.983878475E-1;2.379946871E-1
1.598260929E1;3.580831942E-1;-1.457041941E0;2.947860615E-1
1.600276829E1;5.638528526E-2;-1.242076074E0;2.716533069E-1
1.602292629E1;-4.087867400E-1;-5.256167400E-1;-2.313404095E-1
1.604308529E1;-6.510222664E-1;-4.892493975E-1;2.643666530E-1
1.606324329E1;1.491405442E-1;-3.374720514E-2;5.210678255E-1
1.608340229E1;1.589817298E0;-7.487593532E-2;5.746445469E-1
1.610356029E1;2.371632715E0;-2.288190901E-2;8.540081386E-1
1.612371929E1;2.849838769E0;3.174763280E-1;6.559710574E-1
1.614387829E1;2.384661189E0;2.510677457E-2;4.441031186E-1
1.616403629E1;1.639087106E0;-3.413756526E-1;1.470962992E0
1.618419529E1;3.630580053E-1;-1.291643506E0;5.069559725E-1
1.620435329E1;-2.750641340E-1;-9.759874159E-1;-6.404887998E-1
1.622451229E1;-1.009566514E0;-1.616415989E0;6.617855287E-1
1.624467129E1;-1.533908853E0;-2.627561544E0;6.310256203E-2
1.626482929E1;-1.242182493E0;-1.922138245E0;-5.111583298E-1
1.628498829E1;-9.460493794E-1;-4.622112876E-1;-3.079746026E-1
1.630514629E1;-3.084188740E0;-6.513880098E-1;7.466964555E-1
1.632530529E1;-2.860183370E0;2.507145739E-1;-3.835644829E-1
1.634546329E1;-1.822284758E-1;1.685694970E0;-1.109056596E0
1.636562229E1;2.123188908E0;1.879273476E0;-5.270790117E0
1.638578129E1;3.630437965E0;1.383459409E0;-5.588985068E0
1.640593929E1;1.546577138E0;5.355482358E-1;1.164987552E-1
1.642609829E1;-1.607767665E0;-1.160964083E0;1.871008437E0
1.644625629E1;-2.504149918E0;-1.482824069E0;2.107831196E0
1.646641529E1;-2.581369417E0;-1.538241640E0;1.444742907E0
1.648657329E1;-1.540616779E0;-2.061278588E0;7.386213776E-1
1.650673229E1;-5.682002574E-1;-9.913609153E-1;2.688655738E-1
1.652689129E1;-6.135524315E-1;5.034370816E-1;-1.301151809E0
1.654704879E1;-6.980110762E-1;1.944053024E-1;-1.048429155E0
1.656720779E1;-4.117588797E-1;3.272382545E-1;-3.644087852E-1
1.658736579E1;-2.394768101E-1;8.676238918E-1;-5.265897167E-1
1.660752479E1;2.863475060E-1;6.899673539E-1;-2.186425960E-1
1.662768279E1;8.754574066E-1;5.090790600E-1;-5.819251344E-2
1.664784179E1;1.422470863E0;8.911916792E-1;8.560206771E-2
1.666799979E1;5.715875494E-1;8.142826670E-1;2.634088790E-1
1.668815879E1;-5.059654176E-2;4.642852950E-1;3.590808754E-1
1.670831779E1;8.760298491E-3;-4.231337607E-2;-1.506501491E-1
1.672847579E1;-7.996359766E-2;-3.487413901E-1;1.337923340E-1
1.674863479E1;-3.105491316E-1;-4.646671182E-1;6.855263937E-1
1.676879279E1;-4.121117592E-3;-6.281839192E-1;3.929529186E-1
1.678895179E1;-6.828816980E-2;-8.299029189E-1;-3.255356915E-1
1.680910979E1;7.815096080E-3;-8.818197620E-1;-1.940961309E-1
1.682926879E1;-2.217498064E-1;-1.768654096E-1;-3.448819354E-2
1.684942779E1;-5.145590705E-1;3.759818137E-1;8.356643267E-1
1.686958579E1;-6.480489573E-1;-1.858344537E-1;1.158984801E0
1.688974479E1;-3.899856028E-1;-1.113587018E0;9.218955548E-1
1.690990279E1;-2.160847315E-1;5.082867622E-2;1.114294531E0
1.693006179E1;-9.729565117E-1;2.342587548E-1;1.083277391E0
1.695021979E1;-1.526215964E0;1.147277505E0;5.692359455E-1
1.697037879E1;-1.481442956E0;1.017793838E0;-7.592210452E-1
1.699053679E1;-7.113044286E-1;1.070007720E0;2.719705184E-1
1.701069579E1;-2.578932005E-1;1.297866113E0;-1.405578111E0
1.703085379E1;9.727916202E-1;2.550786433E0;-5.371676221E-1
1.705101279E1;-7.622056103E-1;1.357783116E0;-7.831760645E-3
1.707117179E1;-6.499443322E-2;1.941474402E-1;-1.932256266E-1
1.709132979E1;3.968788853E-1;-2.232105578E0;-7.649798217E-1
1.711148879E1;-1.203951351E0;-5.653062950E0;-6.190340500E-1
1.713164679E1;-7.207190305E-2;-3.872524973E0;-6.449274212E-2
1.715180579E1;1.352844850E0;-1.755278590E0;6.152326289E-1
1.717196379E1;2.028259069E0;-5.733422989E-1;1.558297589E-1
1.719212279E1;3.947013822E-1;1.395786510E0;-8.458468142E-1
1.721228079E1;-5.579243606E-1;1.167936303E0;5.369888435E-1
1.723243979E1;4.290277541E-2;1.904172090E0;2.938063605E-1
1.725259779E1;-1.792246442E0;1.991667486E0;-8.270155638E-2
1.727275679E1;-1.580978062E0;4.484715003E-1;2.024154031E-1
1.729291479E1;4.727339369E-1;8.221828401E-2;6.676935554E-1
1.731307379E1;-6.664276332E-1;-1.092216030E0;-3.820901075E-1
1.733323279E1;1.216418199E0;-1.473176748E-1;3.162583530E-1
1.735339079E1;1.758935731E0;1.841872931E-1;9.699261922E-1
1.737354979E1;1.067934005E0;6.262490755E-1;2.519669597E0
1.739370779E1;-1.002942788E0;1.253929549E0;-1.255076773E0
1.741386679E1;-1.849349180E0;1.403165111E0;-2.974832359E-1
1.743402479E1;-2.291650991E0;8.997736377E-1;1.253061238E-1
1.745418379E1;-2.731287641E0;1.985229117E-1;3.077032918E-1
1.747434179E1;-2.949679684E0;-9.162095761E-1;-8.291977447E-1
1.749450079E1;-8.549275401E-1;-2.695605592E0;-1.172112677E0
1.751465879E1;2.644907016E0;-5.359226330E0;8.893968764E-1
1.753481804E1;2.847081807E0;-4.291361030E0;1.604211681E0
1.755497604E1;5.136056820E-1;-2.375448900E-1;6.917279506E-1
1.757513504E1;-7.664971742E-1;8.033255696E-2;-9.461028814E-2
1.759529304E1;3.046250251E-1;-2.511484373E-1;4.069837511E-1
1.761545204E1;-4.671013141E-1;1.058763524E0;-8.080296546E-1
1.763561004E1;-8.292439377E-1;2.206450920E0;7.355651110E-1
1.765576904E1;-1.377784687E0;1.583324257E0;8.105097511E-1
1.767592804E1;-8.906402868E-1;1.078924724E0;7.486345151E-1
1.769608604E1;-1.548192431E0;3.181873494E-1;6.150335312E-2
1.771624504E1;-7.482725725E-1;9.015359885E-1;2.042493823E-1
1.773640304E1;-4.012762839E-1;8.488034588E-1;-1.074443418E-1
1.775656204E1;-1.176953879E0;1.486145872E-1;8.003545994E-1
1.777672004E1;9.161826789E-2;1.307262003E-2;3.811469516E-1
1.779687904E1;2.043359211E-1;-5.229445624E-1;6.154399127E-1
1.781703704E1;7.508336529E-1;-1.134775574E0;-8.302543366E-1
1.783719604E1;1.038625421E0;4.103926778E-2;-7.002473438E-1
1.785735404E1;2.256298725E0;-4.598805875E-1;1.702592838E0
1.787751304E1;1.611301722E0;-1.258020846E0;1.762750455E0
1.789767104E1;-9.720861536E-1;5.253103459E-1;-1.048838460E-1
1.791783004E1;-1.334767598E0;4.052132142E-1;-5.271536222E0
1.793798804E1;1.542476193E0;-6.321132481E-1;1.151462065E0
1.795814704E1;-4.120532870E-2;-3.120366633E-1;1.963592372E0
1.797830504E1;8.448848011E-1;-2.871339566E-1;5.787062421E-1
1.799846404E1;-2.534047316E-1;2.049583572E-1;-7.598749101E-1
1.801862204E1;-1.892890326E0;-6.786003667E-1;-5.837839642E-1
1.803878104E1;-1.739999085E0;1.023879620E0;1.671312574E-1
1.805893904E1;-5.027403858E-1;1.526143166E0;1.009695737E0
1.807909804E1;1.907680419E-1;4.857562709E-1;5.532799172E-1
1.809925604E1;-2.710798413E-1;-9.147308153E-1;3.184036964E-1
1.811941504E1;-7.763981183E-1;-2.549736857E-1;-1.826468441E-1
1.813957304E1;-5.723737076E-1;4.045565718E-1;8.518311471E-2
1.815973204E1;-9.567006674E-1;1.626742172E-1;-2.209218407E-1
1.817989004E1;5.915845884E-1;-4.157902426E-1;-1.491095540E-1
1.820004904E1;1.245897814E0;4.790717340E-1;2.477827799E-1
1.822020704E1;6.785898417E-1;1.548477191E-1;7.701312187E-1
1.824036604E1;-2.052583194E-1;-2.177169818E-1;3.662918079E-1
1.826052404E1;1.414845801E0;2.040912151E-1;2.519284558E-1
1.828068304E1;6.696433094E-1;-4.123082256E-1;-2.900160491E-1
1.830084104E1;-3.451017907E-1;9.955001593E-2;3.853522691E-1
1.832100004E1;-1.173484726E0;7.267673904E-1;1.291951362E0
1.834115804E1;-1.628662690E0;2.623493636E-1;1.233484468E0
1.836131704E1;-1.253035510E0;-1.781541359E-1;7.884666252E-1
1.838147504E1;-7.171190460E-1;2.574148983E-1;5.369541988E-1
1.840163404E1;-7.461723988E-1;-6.590455234E-2;-3.101676008E-1
1.842179204E1;-5.143487169E-1;-1.537811869E-1;-1.339867247E0
1.844195104E1;-2.198079461E-1;1.559265304E-1;-1.603066796E0
1.846210904E1;5.394332720E-1;-3.563667440E-1;-1.125520893E0
1.848226804E1;1.476904494E0;-4.812708718E-1;2.349648938E0
1.850242604E1;1.770367769E0;-9.687953407E-1;1.134685526E0
1.852258504E1;1.374633915E0;-1.434887425E0;-4.247531471E-1
1.854274296E1;-6.212977995E-1;-1.686513580E0;-4.188772801E-1
1.856290196E1;-6.741760710E-1;-2.447837430E-1;-5.965744561E-1
1.858305996E1;3.693925864E-1;-1.420931876E-2;-1.235471644E0
1.860321896E1;1.146419719E0;3.484227169E-1;-7.909084225E-1
1.862337696E1;8.055369866E-1;6.455378705E-1;1.714134657E-1
1.864353596E1;7.768265730E-1;1.028695387E0;1.999472934E-1
1.866369396E1;4.585848445E-1;1.125701864E0;-4.751622856E-2
1.868385296E1;4.901726729E-1;8.452670628E-1;-3.261880946E-1
1.870401096E1;7.182656850E-1;3.938696158E-1;-3.566567659E-1
1.872416996E1;2.053086054E-1;4.960602343E-1;1.000610626E-1
1.874432796E1;9.030727829E-1;4.995375735E-1;-3.241403997E-2
1.876448696E1;4.569677970E-1;-1.143388522E0;-8.938778901E-1
1.878464496E1;1.035335047E0;-2.313480109E0;-4.722860402E-1
1.880480296E1;-4.531445950E-3;-1.923892994E0;-1.031805229E0
1.882496196E1;1.028535466E-1;-3.549300832E-1;2.085117102E-2
1.884511996E1;-1.235031348E-1;2.034158617E-1;1.038994088E0
1.886527896E1;-1.251136042E-1;3.536097819E-1;-2.562770301E-1
1.888543696E1;-3.723406063E-1;3.187983835E-1;-2.974262255E-1
1.890559596E1;-7.645418653E-1;5.709794390E-1;-7.995307267E-1
1.892575396E1;-2.308939746E-1;2.668827099E-1;-1.565416574E-2
1.894591296E1;3.249517009E-2;-3.176418042E-1;1.653867406E-1
1.896607096E1;-2.361335184E-1;-2.410538042E-1;-6.132799512E-1
1.898622996E1;-1.312555195E-1;-1.950689614E-2;4.047378355E-1
1.900638796E1;-1.439300904E-1;3.309003657E-1;2.915725780E-1
1.902654696E1;-9.821655840E-2;-6.627690303E-1;-4.140784702E-1
1.904670496E1;1.967450657E-1;-6.125630826E-1;3.747422040E-1
1.906686396E1;9.486654237E-2;4.744565266E-1;1.001284810E0
1.908702196E1;-4.298941652E-1;1.100678120E0;-1.641851377E-1
1.910718096E1;-7.200359295E-1;9.631445915E-1;1.065742761E-1
1.912733896E1;-9.433647765E-1;2.631732363E-1;-9.468747139E-2
1.914749796E1;-1.822171468E0;3.290228248E-3;-2.144525982E0
1.916765596E1;1.231291031E0;-1.580552677E0;-4.663967246E-1
1.918781396E1;1.812982861E0;-3.546995859E0;-8.425355360E-1
1.920797296E1;1.329420612E0;-1.104754214E0;2.460245222E-1
1.922813096E1;6.793165044E-1;-1.918699497E-1;-1.518158500E0
1.924828996E1;9.315276732E-1;1.208019551E0;8.452150226E-1
1.926844796E1;-4.812872440E-2;1.990841274E0;7.361135799E-1
1.928860696E1;-8.202161291E-1;1.680346522E0;1.250664757E0
1.930876496E1;-1.244340408E0;1.270083067E0;4.813790452E-1
1.932892396E1;-1.741065471E0;8.843966299E-1;1.188580483E0
1.934908196E1;-1.494484878E0;3.384801114E-1;1.101723602E-1
1.936924096E1;-1.010909911E0;1.359988686E0;1.481996103E0
1.938939896E1;-1.073365776E0;8.024332845E-1;1.099161060E0
1.940955696E1;-7.100253502E-1;1.115374512E0;6.312890831E-1
1.942971596E1;-1.296758358E0;1.653892549E0;5.596527976E-1
1.944987396E1;-4.943700966E-1;5.193771762E-1;-1.362927496E-1
1.947003296E1;-2.368645665E-1;1.554359490E-1;-1.041365719E-1
1.949019096E1;-5.686268118E-1;-8.136400580E-3;-6.921202987E-1
1.951034996E1;-3.701141328E-1;-3.376199859E-1;-1.326737909E0
1.953050796E1;-2.791709259E-1;7.919743699E-1;-1.597900781E-1
1.955066817E1;-4.502496386E-1;4.666165799E-1;-4.730888629E-1
1.957082617E1;-6.136989042E-1;4.355626023E-1;2.038210738E-1
1.959098517E1;-1.754223168E-2;3.067835248E-1;6.903708118E-1
1.961114317E1;-2.118569022E-1;2.504818547E-1;-1.739944267E-1
1.963130117E1;-3.436733159E-1;-3.166986483E-1;-8.972055405E-2
1.965146017E1;-5.422929990E-1;4.100652337E-1;-6.733612615E-1
1.967161817E1;-2.995724460E-1;4.744916099E-1;-1.021103947E0
1.969177717E1;-4.771094084E-2;4.513489151E-1;-1.076128293E0
1.971193517E1;-6.312624782E-1;9.840647596E-1;-8.720107654E-1
1.973209417E1;5.466143838E-1;9.325759327E-1;-1.006081865E0
1.975225217E1;-3.519193518E-1;4.585480070E-1;-4.792018345E-1
1.977241117E1;7.035954595E-3;2.592678809E-1;-1.304602105E0
1.979256917E1;9.956013161E-1;9.516226530E-2;-6.628432900E-1
1.981272717E1;3.852701157E-1;-3.891509128E-1;-7.828983217E-1
1.983288617E1;2.064704472E-1;3.416440398E-1;-9.877984992E-1
1.985304417E1;-6.559260339E-2;5.029295433E-1;-1.079972545E0
1.987320317E1;-3.195862958E-1;3.237544835E-1;-2.750006917E-1
1.989336117E1;-1.350426149E-1;7.355002069E-1;7.983905196E-2
1.991352017E1;-2.954364181E-1;1.339664934E0;-5.552738178E-1
1.993367817E1;-3.782727528E-1;1.642060123E0;-7.671257499E-1
1.995383717E1;-5.202451953E-1;1.703483954E0;-3.113408446E-2
1.997399517E1;-3.924639452E-1;1.070044557E0;-2.347873431E-1
1.999415317E1;2.080708301E-1;4.257825494E-1;-1.136535001E0
2.001431217E1;8.152992055E-1;4.393118370E-1;-1.338815041E0
2.003447017E1;7.222138712E-1;-5.439021528E-2;-8.637822711E-1
2.005462917E1;1.175481842E0;-5.572776586E-1;6.059937358E-2
2.007478717E1;4.617402944E-1;-1.042164448E0;1.768244791E-1
2.009494617E1;2.834046024E-1;-6.714053679E-1;1.903023112E-1
2.011510417E1;4.484527892E-1;-6.137623465E-1;2.482246833E-1
2.013526217E1;5.035972953E-2;-1.043747874E0;-4.485434210E-1
2.015542117E1;6.955263019E-4;-9.446217817E-1;-9.363896330E-1
2.017557917E1;9.699647838E-1;-1.505614761E0;-1.058981918E-1
2.019573817E1;8.440464565E-1;-1.194773269E0;7.077542916E-1
2.021589617E1;5.205109513E-1;-8.192773587E-1;1.381027552E-1
2.023605517E1;7.803609225E-1;-2.515735298E-1;9.890720227E-1
2.025621317E1;1.676589686E-1;2.345189559E-1;4.845412195E-1
2.027637117E1;-1.794861317E-2;-3.763408327E-1;-7.461047173E-2
2.029653017E1;5.484027547E-1;-1.221889731E0;-6.188584873E-1
2.031668817E1;2.830730653E-1;-1.943443744E0;-1.466370150E0
2.033684717E1;3.769126904E-1;1.360840040E-1;1.593726161E0
2.035700517E1;-1.354443187E-1;2.445802599E-1;1.575117105E0
2.037716417E1;-1.600344917E-1;1.466177630E-1;8.268053564E-1
2.039732217E1;-3.592067367E-1;4.677316439E-1;7.833187366E-1
2.041748017E1;-4.419179410E-1;3.372463489E-1;1.156379574E0
2.043763917E1;1.005318073E0;1.020888770E-1;-4.713858613E-1
2.045779717E1;5.804685929E-1;-2.383605766E-1;-1.027960977E-1
2.047795617E1;2.019174104E0;-6.545110077E-1;2.768282390E-1
2.049811417E1;1.531124116E0;-8.319903749E-1;-1.377823278E-1
2.051827217E1;9.974423119E-1;-5.713600928E-1;-4.698211464E-1
2.053843004E1;1.012159461E0;-2.632112432E-1;-2.486926067E-1
2.055858804E1;7.942604850E-1;4.683023322E-1;1.565615380E-1
2.057874704E1;3.613652363E-2;1.128191609E0;4.135843804E-1
2.059890504E1;9.178196070E-1;1.876027687E0;8.466809195E-1
2.061906304E1;9.268497545E-1;1.960941537E0;1.068601757E0
2.063922204E1;4.331903869E-1;1.719411770E0;1.366783150E0
2.065938004E1;3.241516556E-1;5.998056275E-1;1.153928421E0
2.067953904E1;7.582258491E-1;1.914559668E-1;3.159414339E-1
2.069969704E1;1.273130782E0;1.490654075E-1;-4.072530153E-1
2.071985604E1;1.780500409E0;-4.930559349E-1;-1.088393413E0
2.074001404E1;2.120174375E0;-4.266701567E-1;-9.084345335E-1
2.076017204E1;1.569024307E0;-1.101835869E0;-1.711672980E-1
2.078033104E1;1.688930234E0;-1.381822189E0;3.065619153E-1
2.080048904E1;1.285550561E0;-1.030365352E0;1.212797311E-1
2.082064804E1;4.163423659E-1;-6.330634207E-1;5.629468265E-1
2.084080604E1;1.095572332E-1;3.610427624E-1;7.992050368E-1
2.086096404E1;1.804830819E-1;-1.302385426E-1;1.671362275E-1
2.088112304E1;-5.565087497E-4;3.284182227E-1;1.900108275E-1
2.090128104E1;-7.539918803E-1;5.540529191E-2;1.627473074E-1
2.092144004E1;8.949628410E-1;-7.155769891E-1;-2.666698712E-1
2.094159804E1;2.486937761E-2;-2.184484100E0;4.853753248E-1
2.096175604E1;-2.269079277E-1;-7.844864255E-1;6.521110180E-1
2.098191504E1;1.368832453E0;-3.153105193E-1;-8.852392137E-2
2.100207304E1;-9.771893111E-1;-2.329427220E0;5.619723880E-1
2.102223204E1;-6.911093152E-1;6.385475242E-1;-1.586108994E0
2.104239004E1;-8.750770453E-1;5.629137897E-1;-2.391809410E-1
2.106254804E1;2.255680675E0;1.852000308E-1;1.124826829E0
2.108270704E1;8.456775373E-1;-1.515890658E-1;-1.799404603E-1
2.110286504E1;5.795969193E-1;-1.073755785E0;-4.412881958E-1
2.112302404E1;2.513634394E0;-2.483201975E0;6.341048098E-1
2.114318204E1;1.164190577E0;5.013297451E-1;1.534334530E0
2.116334004E1;-2.388332509E0;3.902107206E0;8.720478952E-1
2.118349904E1;-1.598888960E0;-5.832188308E-2;-5.519075757E-1
2.120365704E1;1.008009254E0;-6.335914242E-1;4.103043848E-1
2.122381504E1;7.351873809E-1;2.130920681E0;1.760841047E0
2.124397404E1;7.775671229E-1;1.462283970E0;-2.930682957E-2
2.126413204E1;1.040462324E0;8.353969628E-1;-4.429493898E-1
2.128429104E1;1.596151879E0;1.248671148E0;7.895243865E-1
2.130444904E1;-7.889636385E-1;1.583614864E0;1.123845958E0
2.132460704E1;-3.121585777E-1;5.659075642E-1;1.268740547E-1
2.134476604E1;4.547626658E-1;-7.668132162E-1;6.139132047E-1
2.136492404E1;4.756283087E-1;1.436204803E-1;1.364623774E0
2.138508304E1;-2.260970651E-1;7.179427725E-1;1.182359045E0
2.140524104E1;1.182837640E-1;4.132952356E-1;7.776989776E-1
2.142539904E1;-8.985270113E-2;3.852800560E-1;-1.209484863E-1
2.144555804E1;6.726417616E-1;3.364213067E-1;1.044125605E0
2.146571604E1;-4.071846029E-1;1.248931350E0;6.113263965E-3
2.148587404E1;2.189478207E-1;3.372124350E-1;-8.412196201E-1
2.150603304E1;4.448678613E-1;6.103206754E-2;1.578882712E-1
2.152619104E1;1.815042982E-1;1.362524039E-1;-5.874112844E-3
2.154635029E1;2.394309095E-1;1.247878851E0;4.641759521E-1
2.156650829E1;-2.855797666E-1;1.317933757E0;3.404623175E-1
2.158666629E1;4.905489412E-1;1.106148190E0;-6.474583885E-1
2.160682529E1;2.938255101E-1;8.329148197E-1;-1.104737842E-1
2.162698329E1;3.789650631E-1;7.408515787E-1;-3.643973100E-1
2.164714129E1;6.137024125E-1;5.648983347E-1;-7.298786938E-2
2.166730029E1;4.814641222E-1;4.721632487E-1;1.308469453E-1
2.168745829E1;7.863446707E-1;2.910375577E-1;-3.104318950E-1
2.170761729E1;6.359162772E-1;5.435554129E-1;-3.169541717E-1
2.172777529E1;2.635600296E-1;4.584187835E-1;-6.545016521E-1
2.174793329E1;3.261717224E-1;6.584379977E-1;-8.140771374E-1
2.176809229E1;9.020753941E-1;1.290246606E0;-3.508417100E-2
2.178825029E1;-2.403106230E-1;3.757724833E-1;-2.079892614E-1
2.180840829E1;-3.217974204E-1;-1.620935887E-1;3.597794715E-1
2.182856729E1;1.408836910E-1;-1.045219619E0;5.658192712E-1
2.184872529E1;4.624940005E-1;-2.404126570E0;-4.644779608E-1
2.186888429E1;1.165524034E0;-2.725594207E0;-7.082498431E-1
2.188904229E1;8.687284309E-1;-2.138386990E0;-8.316579607E-1
2.190920029E1;6.481267253E-1;-1.273302544E0;-6.490500006E-1
2.192935929E1;1.114065613E0;-2.136859113E-1;1.512376481E0
2.194951729E1;3.223072976E-1;-2.107535326E-1;1.518940273E0
2.196967529E1;-4.225037232E-1;2.086046809E-1;-5.049886402E-1
2.198983429E1;-1.553108186E-2;-1.191660211E0;-1.067419450E0
2.200999229E1;1.148361287E0;-1.138490894E0;-6.463684675E-1
2.203015029E1;9.451614797E-2;4.982944554E-1;1.133590051E0
2.205030929E1;-1.288638622E0;7.119335890E-1;1.633160369E0
2.207046729E1;-1.119546500E0;1.036490895E0;9.971379644E-1
2.209062529E1;-4.072544771E-1;1.134632902E0;4.652530092E-1
2.211078429E1;-5.445529479E-1;8.787716085E-1;1.031017317E0
2.213094229E1;1.381053865E-1;5.542862231E-1;1.639334736E0
2.215110129E1;-6.953801215E-3;6.982639682E-1;1.608859633E0
2.217125929E1;-8.787400335E-2;7.204693544E-1;1.093392197E0
2.219141729E1;-3.711432427E-2;5.229591805E-1;3.142211831E-1
2.221157629E1;5.964389469E-1;1.844141650E-1;1.101796693E-1
2.223173429E1;1.718789041E-3;-5.303687721E-1;-4.589628670E-1
2.225189229E1;-1.100517468E0;-1.229470646E0;-3.142828712E-1
2.227205129E1;-1.654781033E-1;-1.486087400E0;-6.134191149E-1
2.229220929E1;6.721337847E-1;-1.445467962E0;-8.823942509E-1
2.231236729E1;3.018775646E-1;-1.501763200E0;-6.106878805E-1
2.233252629E1;7.258221880E-1;-1.036096208E0;1.643237168E-1
2.235268429E1;1.471216615E0;-5.056672096E-1;8.789914638E-2
2.237284229E1;1.260267347E0;-6.851591885E-2;-2.438727468E-1
2.239300129E1;1.164580001E0;8.271471262E-3;-3.757257056E-1
2.241315929E1;1.343678024E0;2.882414192E-1;-1.061351502E-1
2.243331729E1;5.355730864E-1;4.921385068E-1;-2.743946278E-1
2.245347629E1;4.314656045E-1;5.766798896E-1;-1.856426650E-1
2.247363429E1;1.039130621E-1;-9.567752194E-1;-4.045861003E-1
2.249379329E1;-3.655193907E-1;-3.085850519E-1;-1.392579312E0
2.251395129E1;-4.549236104E-2;-1.863531017E0;-1.564929501E0
2.253410929E1;-1.022506548E0;-1.511236859E0;-1.132041123E0
2.255426829E1;8.359403153E-1;-6.521265131E-1;-1.090256920E0
2.257442629E1;3.600089747E-1;-2.896573225E0;-1.669043854E-1
2.259458429E1;1.237621373E0;-1.232543943E0;-7.821153796E-1
2.261474329E1;1.038482164E0;-1.343176187E0;-3.295695394E-1
2.263490129E1;9.345604777E-3;-1.285808569E-1;2.768504584E-1
2.265505929E1;2.956172432E-1;-5.593446493E-2;5.167242944E-1
2.267521829E1;-6.298663093E-1;1.854397666E-1;5.477630693E-1
2.269537629E1;-6.754336609E-1;8.759514964E-1;1.537607802E0
2.271553429E1;-6.734416607E-1;6.698044002E-1;1.842454144E0
2.273569329E1;-1.691161824E0;6.248451591E-2;2.652698724E0
2.275585129E1;-1.309416702E-1;2.833606313E0;9.032790434E-1
2.277600929E1;-1.199117604E0;-4.225876307E-1;9.260688588E-1
2.279616829E1;-6.737476163E-1;-4.077210850E-1;4.437539667E-1
2.281632629E1;-4.777925093E-1;-5.547668642E-1;5.541105142E-1
2.283648429E1;-4.865023756E-1;-6.540280277E-1;3.641780394E-1
2.285664329E1;-1.287887254E-1;7.370818788E-1;3.357520929E-1
2.287680129E1;-1.650440937E-1;1.343498368E0;4.187313920E-1
2.289695929E1;-9.252910329E-1;2.383670086E-1;1.157321852E-1
2.291711829E1;3.456047975E-1;-5.072576523E-2;-9.283770472E-1
2.293727629E1;-5.340620197E-1;1.512560084E0;8.447343814E-1
2.295743429E1;-1.182630356E0;1.920433781E0;9.233747542E-2
2.297759329E1;-7.324950305E-1;2.983389759E-1;4.402193248E-2
2.299775129E1;-6.541864872E-1;1.190232906E0;1.098711702E0
2.301790929E1;-9.511551681E-1;1.886838019E0;7.171031123E-1
2.303806829E1;-6.023719704E-1;1.307707561E0;-3.638953266E-1
2.305822629E1;-1.067116857E-3;5.170499843E-1;-1.025091164E0
2.307838429E1;-2.914202580E-1;8.285568899E-1;-1.443367642E-1
2.309854229E1;-1.099499614E0;8.213572133E-1;6.548910767E-2
2.311870129E1;-1.132469432E0;2.565904409E-1;4.821847916E-2
2.313885929E1;-6.363872704E-1;-3.114361542E-1;-6.392217082E-1
2.315901729E1;-6.861932686E-1;-3.309366184E-1;-2.821407267E-1
2.317917629E1;-5.170771739E-1;3.362049598E-1;-6.887210199E-1
2.319933429E1;-5.318510413E-2;2.260270447E-1;-1.129983196E0
2.321949229E1;-2.130523655E-1;2.292003286E-1;-4.918718737E-1
2.323965129E1;-8.832248479E-2;-4.637368262E-2;-1.449536455E-1
2.325980929E1;-1.767578208E-1;1.953279930E-1;3.552136731E-1
2.327996729E1;-4.129923499E-1;3.259951365E-1;-9.374782383E-2
2.330012629E1;6.654716134E-3;1.091493314E0;-2.215650344E-1
2.332028429E1;-7.533026397E-1;1.642471767E0;-2.718926042E-2
2.334044229E1;-7.828240621E-1;1.817554945E0;-8.888606867E-1
2.336060129E1;-2.042414886E-1;1.664557285E0;-8.239092305E-1
2.338075929E1;-5.286990997E-1;2.766048753E-1;-1.231778250E0
2.340091729E1;5.692790687E-1;5.259453535E-2;-1.037086726E0
2.342107629E1;9.501696199E-2;-4.120719981E-1;-1.063842416E-2
2.344123429E1;-4.403394851E-1;-1.421675642E0;-3.624496025E-1
2.346139229E1;4.090396321E-1;-1.490481582E0;-2.814937323E-2
2.348155029E1;1.297739813E-1;-3.217797033E0;-2.989827543E-2
2.350170929E1;-3.147170269E-1;-3.192431227E0;-4.947548434E-1
2.352186729E1;-1.888200420E-1;-1.641395295E0;-4.882612181E-1
2.354202479E1;-6.591762087E-1;5.312347448E-1;-1.136562483E0
2.356218379E1;-5.767038631E-1;1.463956858E0;-4.451660693E-1
2.358234179E1;-7.674414995E-1;1.113793425E0;-1.805269361E-1
2.360249979E1;-8.626941043E-1;-5.829685700E-1;-4.958918345E-1
2.362265879E1;3.528575376E-1;-1.470760093E0;7.948734194E-2
2.364281679E1;1.027210487E0;-1.602192637E0;-2.931922567E-1
2.366297479E1;1.086793030E0;-1.031123151E0;-3.571876931E-1
2.368313379E1;4.984955996E-2;-2.447118223E-2;-9.299262670E-1
2.370329179E1;-1.298543659E0;-6.820759517E-1;2.642213497E-1
2.372344979E1;6.141383225E-1;-2.827830434E-2;1.569473080E0
2.374360779E1;3.188885768E-1;-2.241237760E-1;7.543086532E-1
2.376376679E1;3.082600929E-1;-6.354666263E-1;-7.802846164E-2
2.378392479E1;1.313945371E-1;-7.110535830E-1;5.308882973E-1
2.380408279E1;-4.293114902E-1;1.438256591E0;5.898919657E-1
2.382424179E1;-4.157917044E-1;9.570775205E-1;1.902731920E0
2.384439979E1;4.781050430E-1;2.542492157E-1;5.703646043E-1
2.386455779E1;2.021249427E-1;-4.355994397E-1;4.060262695E-1
2.388471679E1;1.012348034E0;3.305816925E-1;1.566515851E-1
2.390487479E1;-7.535204485E-2;5.530939758E-1;-7.682656646E-3
2.392503279E1;1.150147319E-1;8.201193577E-1;6.246837759E-1
2.394519079E1;5.787902959E-1;8.193498641E-1;1.145800206E0
2.396534979E1;1.441933613E-1;1.533112462E0;1.075754948E0
2.398550779E1;5.771861123E-1;1.668725181E-1;6.198294175E-1
2.400566579E1;6.009031498E-1;-1.902085803E0;-5.530258557E-1
2.402582479E1;8.355684324E-1;-1.354428568E0;-1.927439038E0
2.404598279E1;4.279678001E-1;-7.232941443E-1;-7.577304438E-1
2.406614079E1;7.932104713E-1;-3.868079334E-1;3.690426305E-1
2.408629879E1;9.686750342E-1;-2.424887109E-1;3.038125545E-1
2.410645779E1;1.006198664E0;-4.559021419E-1;-3.302267665E-1
2.412661579E1;8.895237610E-1;-4.230004442E-1;-1.490350020E-1
2.414677379E1;7.192651934E-1;-1.708497941E-1;-1.856081665E-2
2.416693279E1;6.166882201E-1;9.013132095E-2;1.487572592E-1
2.418709079E1;5.478429569E-1;4.496883059E-1;3.820804596E-1
2.420724879E1;-1.040457208E-1;-6.707253367E-1;1.990669951E-1
2.422740679E1;5.608990585E-1;-2.347135513E0;8.280589995E-1
2.424756579E1;1.758459476E-1;-2.391698313E0;1.724110007E-2
2.426772379E1;-4.183926190E-1;-9.311965746E-1;-1.019859952E0
2.428788179E1;-3.697514592E-1;1.074534634E0;1.511289484E0
2.430804079E1;1.171301595E0;1.943698683E0;5.251939863E-1
2.432819879E1;1.169758003E0;-3.209068894E-1;3.372095114E-1
2.434835679E1;4.199537159E-1;-3.006815459E0;1.815162849E-1
2.436851479E1;3.086414044E-1;-1.402297969E0;-3.591698992E-1
2.438867379E1;-4.246267376E-1;-1.474136860E0;4.627050850E-1
2.440883179E1;-6.503764415E-1;-7.268363875E-1;1.959808347E-1
2.442898979E1;-2.652280575E-1;8.586811602E-1;1.504821002E0
2.444914879E1;3.960725177E-1;3.466465082E0;1.824396480E0
2.446930679E1;-1.800683316E-1;2.654651109E0;1.056465861E0
2.448946479E1;5.227554050E-1;1.095501580E0;1.035197783E0
2.450962279E1;-1.026609539E-1;2.574775804E0;6.073713398E-1
2.452978179E1;-6.805518749E-1;2.329827754E0;-1.978308937E-1
2.454994042E1;-5.210738920E-1;6.555407023E-1;4.276428410E-1
2.457009842E1;-4.076238750E-1;1.925140205E0;-6.597501129E-2
2.459025642E1;-3.633885191E-1;2.246798462E-1;-4.717533588E-2
2.461041542E1;-1.635681834E-1;-8.122022277E-1;-2.405164450E-2
2.463057342E1;7.297605801E-1;3.990122420E-1;1.160847723E-1
2.465073142E1;3.511838452E-1;6.084291011E-1;-9.103392640E-1
2.467088942E1;4.847552276E-1;-1.144762618E0;-6.966311333E-1
2.469104842E1;8.598416863E-1;-6.287394047E-1;2.406982934E-1
2.471120642E1;6.165169698E-1;1.507386467E0;5.093366298E-1
2.473136442E1;-1.261150861E-1;2.102909009E0;-1.049695078E-1
2.475152342E1;-8.515925807E-1;3.943906027E-1;-4.933383554E-2
2.477168142E1;-1.542409097E0;8.759538352E-2;-4.693241331E-1
2.479183942E1;-1.542864595E0;9.518208736E-1;-1.419859496E0
2.481199742E1;-7.458108947E-1;7.011840677E-1;-1.176025634E0
2.483215642E1;-4.938570035E-1;-4.573931819E-1;3.620595932E-3
2.485231442E1;-1.088476735E-1;-1.641330975E-1;9.100112352E-1
2.487247242E1;1.228441536E-1;5.998921663E-1;1.988427544E-1
2.489263042E1;5.044061114E-1;1.033813455E0;1.316646785E-2
2.491278942E1;-2.062789509E-1;8.050007969E-1;-3.250879410E-1
2.493294742E1;-2.009965762E-2;1.208259287E0;-1.432091287E-1
2.495310542E1;2.630008896E-1;9.574213368E-1;2.387213498E-2
2.497326342E1;1.326550506E-1;-3.415493149E-1;-8.012752435E-1
2.499342242E1;1.223767857E0;-1.137797415E0;2.316342321E-1
2.501358042E1;7.554789734E-1;-2.722094648E0;1.292138765E0
2.503373842E1;9.963542913E-1;-2.739132265E0;-2.611422059E-1
2.505389642E1;6.712581642E-1;-1.143951609E0;-1.217945784E-1
2.507405542E1;-3.556052904E-1;3.852098894E-1;7.230696112E-2
2.509421342E1;-1.269667915E0;8.930920243E-2;-4.528171510E-2
2.511437142E1;-1.125842928E0;-1.822114019E0;-4.938438472E-1
2.513452942E1;-7.494098559E-2;-3.390571146E0;-1.436568500E0
2.515468842E1;1.439205886E-1;-2.981440882E0;-1.156438923E0
2.517484642E1;6.853661799E-1;-1.396494607E0;-9.278595686E-2
2.519500442E1;-2.854198453E-1;5.463351792E-1;4.761083651E-1
2.521516242E1;-1.036996972E0;1.054921904E0;1.426896036E-1
2.523532142E1;-7.389813468E-1;2.604676711E0;1.303426230E-1
2.525547942E1;-2.940938973E-1;1.982311356E0;-1.953850034E-1
2.527563742E1;-6.236722076E-1;1.508418501E0;1.315889570E-1
2.529579542E1;-5.798341700E-1;5.301804918E-1;4.772129041E-1
2.531595442E1;-5.200902441E-1;-9.949856043E-2;7.289150727E-1
2.533611242E1;-7.710351983E-1;-6.315776432E-1;8.662840024E-1
2.535627042E1;-1.787366940E0;-1.658398998E-1;8.479573667E-1
2.537642842E1;-1.520430436E0;3.451763427E-1;1.711610999E0
2.539658742E1;-7.054825021E-1;3.687330204E-1;9.752559292E-1
2.541674542E1;-2.862372860E-1;1.382761252E-1;3.929095030E-2
2.543690342E1;5.442781287E-1;4.683093488E-2;2.987225533E-2
2.545706142E1;1.054357940E0;-6.547250158E-1;-7.576108682E-1
2.547722042E1;8.029639193E-1;-9.653180015E-1;-5.662809089E-1
2.549737842E1;7.220942956E-1;-6.564856124E-1;-8.057419315E-1
2.551753642E1;6.035916996E-1;-3.420691323E-1;-7.185760260E-2
2.553769342E1;9.343046620E-1;2.671329707E-1;3.038710266E-2
2.555785242E1;3.036741216E-1;-3.744439960E-2;-5.058397025E-2
2.557801042E1;4.313037828E-1;-1.037401307E-1;-8.461958930E-1
2.559816842E1;8.839270985E-1;-9.786239254E-1;-9.525716561E-1
2.561832642E1;8.727251489E-1;-1.672824664E0;-6.774405715E-1
2.563848542E1;1.054724706E0;-1.483017612E0;-2.069709688E-2
2.565864342E1;1.308024627E0;-4.094465983E-1;3.338651964E-1
2.567880142E1;3.115298559E-1;1.508990943E-2;1.765192544E-1
2.569895942E1;9.954178597E-1;5.228311265E-1;-5.834892645E-1
2.571911742E1;7.775754552E-1;-1.927815891E0;-2.306317270E-1
2.573927642E1;2.959274380E-1;-2.978274615E0;-1.100654439E0
2.575943442E1;6.104311877E-1;-1.350300434E0;9.523360133E-2
2.577959242E1;-2.157132871E-2;-1.631380184E0;8.495352378E-1
2.579975042E1;-2.270706265E-1;-9.752097362E-1;3.224067003E-2
2.581990942E1;3.169171149E-1;-1.156403840E-2;1.892920585E0
2.584006742E1;6.284260670E-1;2.336288343E0;1.983637797E0
2.586022542E1;6.154815741E-1;2.402957711E0;7.095125493E-1
2.588038342E1;4.396881784E-1;6.664241248E-1;4.765048063E-1
2.590054242E1;-6.177084131E-1;2.189279401E-1;1.584172980E0
2.592070042E1;-2.194980437E-1;1.400930305E0;9.892807683E-1
2.594085842E1;-8.043992646E-1;-1.591179407E-1;-5.978187436E-1
2.596101642E1;-5.921404394E-1;-1.075838563E0;1.317053751E0
2.598117442E1;2.386314489E-1;1.368189991E0;8.564814377E-1
2.600133342E1;1.431444439E-1;1.213269181E0;-8.327322404E-1
2.602149142E1;-5.722094739E-1;3.303682691E-1;3.558931196E-1
2.604164942E1;1.442629431E-1;8.493343860E-1;3.780077277E-1
2.606180742E1;-5.988550164E-1;1.920373555E0;3.460236043E-2
2.608196642E1;3.359269977E-1;4.385686558E-1;5.386896524E-1
2.610212442E1;5.865715512E-1;1.974190158E0;5.567189571E-1
2.612228242E1;6.215202861E-1;2.433714066E0;-1.192013383E-2
2.614244042E1;3.619176520E-1;1.010231050E0;-5.198084083E-1
2.616259842E1;9.077350603E-1;7.403995889E-1;-1.274263827E0
2.618275742E1;2.638681778E-1;9.570646566E-1;-1.587443036E0
2.620291542E1;-7.508064634E-1;-5.223200798E-2;-5.237302820E-1
2.622307342E1;4.806004885E-1;-2.792951792E-1;-4.134297216E-1
2.624323142E1;7.046099514E-2;2.996265328E-1;3.638175586E-1
2.626338942E1;4.766012853E-1;-1.553429782E-1;-1.992928438E-1
2.628354842E1;2.628558786E-1;-8.654434651E-1;8.987053514E-2
2.630370642E1;-2.272549599E-1;9.516665071E-1;3.194187731E-2
2.632386442E1;-1.732625015E-1;2.296443661E0;-9.201257488E-1
2.634402242E1;1.692404942E-1;1.202701508E0;-2.888442671E-1
2.636418142E1;6.013701962E-1;9.429582489E-1;-6.957962970E-1
2.638433942E1;3.810840210E-1;1.775525744E0;2.524351171E-1
2.640449742E1;-4.636582542E-1;1.303848984E0;-5.186256628E-1
2.642465542E1;4.123215280E-2;2.227958733E-1;2.250640082E-1
2.644481342E1;2.082320671E-1;-5.079885542E-1;7.037030482E-1
2.646497242E1;2.181103532E-1;-1.072909693E0;1.827633499E-1
2.648513042E1;3.146934919E-1;-1.270332159E0;-4.548350251E-1
2.650528842E1;4.631572209E-1;-1.708648215E0;-2.592420070E-1
2.652544642E1;3.381839499E-2;-1.560889660E0;-1.199021271E-1
2.654560454E1;3.618827149E-1;-9.746934271E-1;5.345689733E-1
2.656576354E1;4.347387296E-1;-6.546671283E-1;8.448972264E-1
2.658592154E1;4.548057890E-1;-1.301006067E0;-1.439327216E-1
2.660607954E1;9.997604406E-1;-1.950026540E0;-1.809143141E-1
2.662623754E1;7.963188511E-1;-2.269813687E0;5.461267260E-1
2.664639554E1;6.900278726E-1;-2.141088989E0;-6.254661334E-1
2.666655454E1;8.604367867E-1;-1.186404734E0;1.631995896E-1
2.668671254E1;1.152041817E0;-4.765948534E-2;1.062158418E-1
2.670687054E1;-2.613421807E-1;1.283127036E0;2.819805130E-1
2.672702854E1;-6.537166634E-1;1.232901208E0;9.710517812E-1
2.674718654E1;4.527352899E-2;1.472136528E0;1.688174189E0
2.676734554E1;3.307407367E-1;6.060978162E-1;1.483667822E0
2.678750354E1;-6.948980185E-1;-2.197015268E-1;3.553446507E-1
2.680766154E1;3.816673538E-1;1.668000711E0;1.800007159E0
2.682781954E1;2.546047264E-1;1.163746773E0;1.454942498E0
2.684797754E1;-6.291145036E-1;-9.218883920E-1;1.316033996E0
2.686813654E1;-9.050288227E-1;-2.100406986E0;3.849002793E-1
2.688829454E1;1.481041253E-2;-1.098665509E0;-2.133426797E-1
2.690845254E1;1.398156971E-1;-1.030434934E0;4.761855483E-2
2.692861054E1;3.952469274E-1;-1.279267289E0;-9.468679896E-1
2.694876854E1;1.081348102E0;1.015009394E0;2.786519855E-2
2.696892754E1;7.359779245E-1;7.286116022E-1;4.301308313E-1
2.698908554E1;8.485958827E-1;6.398075992E-1;-8.089885980E-2
2.700924354E1;3.766983899E-1;1.012436035E0;2.694452521E-1
2.702940154E1;-1.008235395E-2;6.271349287E-1;7.011349511E-1
2.704955954E1;-2.298180869E-1;5.975784230E-1;7.371438593E-2
2.706971854E1;-2.969654649E-1;-1.578181046E-1;2.266661453E-1
2.708987654E1;-3.498105535E-1;-1.168144464E0;-3.569362628E-1
2.711003454E1;6.370015204E-1;-2.134577529E0;-1.032717395E0
2.713019254E1;9.165547080E-1;-2.595287252E0;-2.170837283E-1
2.715035054E1;4.020706281E-1;-1.752073731E0;-9.552654684E-2
2.717050854E1;8.029162645E-1;-6.031408793E-1;9.488218367E-2
2.719066754E1;-9.599037722E-2;-7.959791279E-1;1.877312905E-1
2.721082554E1;1.093043557E0;-4.030076444E-2;-7.165572748E-1
2.723098354E1;1.676494668E-1;-2.472959408E0;-8.808573103E-1
2.725114154E1;2.829657689E-1;-1.537639961E0;-5.174733227E-1
2.727129954E1;6.255857089E-1;-2.189537264E0;-1.259066328E0
2.729145854E1;7.889281167E-1;-2.457583569E0;1.105492425E0
2.731161654E1;-4.719913405E-1;1.002797484E-1;1.735595693E0
2.733177454E1;-1.694932401E-2;4.622896403E-1;1.328569257E0
2.735193254E1;-1.219701411E-1;-7.679066455E-1;1.890701274E0
2.737209054E1;-3.063935155E-1;-1.346138971E0;1.519532596E0
2.739224854E1;8.549901053E-2;7.785257739E-1;-6.142102432E-1
2.741240754E1;-1.841443891E0;1.093968440E0;2.747135350E0
2.743256554E1;-2.650621793E0;3.982218153E0;-8.210771316E-1
2.745272354E1;-1.666213802E-1;2.351520340E0;5.756025401E-1
2.747288154E1;-1.203995351E0;2.713225007E-2;2.776337514E0
2.749303954E1;-3.887753753E-1;1.445807685E0;-2.016303560E0
2.751319754E1;1.063800316E0;-5.283614815E0;7.008788431E-1
2.753335654E1;-6.479504317E-1;1.244082838E0;1.363028069E0
2.755351479E1;-8.582092899E-1;2.475080777E0;-4.477598941E-1
2.757367279E1;7.612425739E-1;-9.695414454E-1;3.759831293E-1
2.759383079E1;-6.717778355E-2;2.423681998E0;9.580794409E-2
2.761398879E1;-1.152553448E-1;8.407641220E-1;-1.026793288E0
2.763414679E1;7.654435059E-1;7.044988543E-1;-1.135110327E0
2.765430579E1;-3.565886459E-1;3.063779034E0;-1.447032969E0
2.767446379E1;1.497194186E-1;1.737653328E0;-4.385932434E0
2.769462179E1;-3.003764382E-1;7.486728144E-1;-1.530368071E0
2.771477979E1;-1.744348975E0;-2.438308223E0;-1.852079245E-1
2.773493779E1;2.409951858E0;-2.920573121E0;-4.738244426E-1
2.775509579E1;-4.695422342E-1;-3.436406885E0;2.790297741E0
2.777525479E1;6.469906113E-1;-3.669104433E0;-1.510678450E0
2.779541279E1;4.642078194E-1;-4.825762627E0;-1.270947871E-1
2.781557079E1;-5.491906670E-1;-2.936060057E0;5.140126482E-1
2.783572879E1;6.353081667E-1;5.180042499E-1;1.973269222E0
2.785588679E1;-2.628896463E-1;2.389600917E0;1.745801716E0
2.787604479E1;-2.883460844E-1;3.882318474E0;1.414925323E0
2.789620379E1;-1.298256999E0;4.335092356E0;5.350624783E-1
2.791636179E1;-9.766007888E-1;5.572086030E0;-1.812176384E-1
2.793651979E1;-8.903686836E-1;5.430168843E0;1.011536879E0
2.795667779E1;-6.996766555E-1;4.100073463E0;1.107602539E0
2.797683579E1;-1.274703245E0;2.209570409E0;1.687886506E0
2.799699379E1;-3.504111795E0;1.539281275E0;2.123374410E0
2.801715279E1;-2.372234101E0;-3.481490672E-1;2.036656840E-1
2.803731079E1;-1.298235072E0;-5.002502321E0;-7.348990401E-1
2.805746879E1;-1.347128904E0;-6.485814047E0;-1.125503644E0
2.807762679E1;3.627013251E-1;-4.675316691E0;2.430776424E0
2.809778479E1;8.640626451E-1;-3.082790086E0;2.393196369E0
2.811794279E1;2.423583180E0;-3.191041929E-1;1.135421837E0
2.813810179E1;-2.513977625E0;-1.285089946E0;1.031499127E0
2.815825979E1;-4.126301149E0;-1.376775457E0;-2.203316081E0
2.817841779E1;1.830256560E0;-5.952506465E-1;-2.974262255E0
2.819857579E1;1.073113469E0;-8.052083731E-1;-3.613253583E0
2.821873379E1;1.506710237E0;-1.113295242E0;-7.508166960E-1
2.823889179E1;6.637016612E-1;-9.294652140E-1;1.331189395E0
2.825904979E1;-8.889051256E-1;1.976885140E-2;6.334668785E-2
2.827920879E1;-1.639554299E0;1.134738151E0;1.197329964E0
2.829936679E1;-1.361513347E0;1.664591784E0;2.955296227E0
2.831952479E1;-7.628540665E-1;2.002531613E0;3.718152340E0
2.833968279E1;-2.084578281E0;8.870185214E-1;8.945912504E-1
2.835984079E1;-2.826292031E0;4.886009413E-1;-4.383511394E-2
2.837999879E1;-7.822337857E-1;4.325103557E-1;9.324116260E-2
2.840015779E1;-2.667441308E-2;7.172779441E-3;-1.113153155E0
2.842031579E1;3.878589705E-1;-9.611658937E-1;-1.093028500E0
2.844047379E1;1.347845481E0;-1.416720126E0;-1.754629842E0
2.846063179E1;1.717611412E0;-9.784631270E-1;-4.301103660E-1
2.848078979E1;1.049722267E0;-1.244334853E0;-1.047383088E0
2.850094779E1;1.397583651E0;-1.580823988E-1;-7.378747612E-2
2.852110579E1;1.251195976E-1;2.090204179E-2;9.304963705E-1
2.854126492E1;4.593753880E-1;1.284536800E0;1.209740094E0
2.856142292E1;6.052625415E-1;5.389138931E-1;3.838083118E-2
2.858158092E1;9.441420177E-1;1.150995165E-1;-1.338956836E-1
2.860173892E1;7.728846726E-1;2.371806085E-2;2.483873820E-1
2.862189692E1;1.016069494E0;8.069391489E-1;-7.270074186E-1
2.864205492E1;9.444592291E-1;7.903231162E-1;-9.356582925E-1
2.866221292E1;4.046536356E-1;-6.831600255E-1;-1.264234682E0
2.868237192E1;7.214505172E-1;-4.781133753E-1;-1.088675248E0
2.870252992E1;7.050555092E-1;-4.762919676E-1;-5.355105212E-1
2.872268792E1;-2.254393995E-3;-1.257167153E0;3.597636840E-1
2.874284592E1;-3.687072927E-1;-5.082791609E-1;-1.701203540E-1
2.876300392E1;2.546781090E-1;-7.322427231E-1;-1.518252933E-1
2.878316192E1;2.901110664E-1;-1.761626328E0;-1.775679526E-1
2.880331992E1;4.708043557E-1;-1.557866650E0;-1.187272168E0
2.882347792E1;-9.549239910E-1;-2.193183002E0;1.734707501E0
2.884363692E1;4.503228749E-1;-1.910016382E-1;1.897594849E0
2.886379492E1;5.363754706E-1;-1.197050174E0;2.592484974E0
2.888395292E1;-9.962851480E-2;-1.156023771E0;2.710353147E0
2.890411092E1;-5.344863814E-1;5.844221878E-1;1.618389132E0
2.892426892E1;-1.051161998E0;1.168246205E0;9.540296593E-1
2.894442692E1;-5.434931400E-1;3.415586119E0;1.152117538E0
2.896458492E1;-1.543990768E0;4.143042896E0;5.476712680E-1
2.898474392E1;-8.631567653E-1;5.110313283E0;-2.736567092E-1
2.900490192E1;-4.720790488E-1;1.574066361E0;-1.941146958E-1
2.902505992E1;1.713519238E-1;2.939582419E-1;-1.142348010E0
2.904521792E1;-3.122356148E-1;-2.553555089E-1;-5.155694693E-2
2.906537592E1;-1.395390799E0;1.528013690E0;-2.610878268E-1
2.908553392E1;4.941286066E-1;-2.098586163E0;-1.389032683E0
2.910569192E1;4.402181554E-1;-3.200310935E0;-6.040407658E-1
2.912584992E1;8.343342313E-1;-4.822888720E-1;8.846486449E-1
2.914600792E1;1.040769595E0;-1.340611598E0;3.472719848E-1
2.916616692E1;1.303671813E0;-2.081084862E0;1.590860733E-1
2.918632492E1;1.038769263E0;-1.122238559E0;6.367626616E-1
2.920648292E1;6.724619597E-2;9.112832969E-1;1.399195436E0
2.922664092E1;-1.265632752E-1;2.388080056E0;4.030769339E-1
2.924679892E1;-5.309646034E-1;3.763239927E0;3.617473519E-1
2.926695692E1;-5.636177945E-1;3.798205692E0;-1.067564169E-1
2.928711492E1;-9.051429896E-1;2.400136430E0;-9.668970421E-1
2.930727292E1;-2.277883722E-1;1.646313388E0;-9.451769748E-1
2.932743192E1;-2.430146679E-1;1.173671837E0;-2.505607921E-1
2.934758992E1;7.250091326E-1;4.180139387E-1;-1.572281206E-1
2.936774792E1;6.790124492E-1;-1.090144946E0;5.149321228E-2
2.938790592E1;8.646010275E-1;-1.448807307E0;5.845426404E-1
2.940806392E1;4.586468250E-1;-1.540586958E0;3.811510447E-1
2.942822192E1;1.266378272E-1;-1.806643456E0;-7.501501134E-1
2.944837992E1;2.970243756E-1;-1.593532326E0;3.909310976E-1
2.946853792E1;6.202635732E-1;-6.985691929E-1;5.148511389E-1
2.948869692E1;4.757739043E-1;-2.094630522E-1;4.470912650E-1
2.950885492E1;5.666282335E-1;7.183830678E-2;-5.435074657E-2
2.952901292E1;5.253059605E-1;2.752489060E-1;3.630910420E-1
2.954917092E1;5.309105167E-1;1.210011697E0;6.866101751E-1
2.956932892E1;-8.487847477E-2;1.129316613E0;1.237630436E0
2.958948692E1;-7.954572639E-1;1.362847974E0;4.612137526E-2
2.960964492E1;7.531374559E-2;1.528342304E0;1.065314160E0
2.962980292E1;1.231406075E-1;5.168470860E-2;1.525847589E0
2.964996092E1;1.028246613E0;-1.582667030E0;7.341448224E-1
2.967011992E1;1.637444331E0;-2.369480063E0;1.846361546E0
2.969027792E1;1.409380994E0;-1.858529309E0;6.371254814E-1
2.971043592E1;1.256299426E0;-8.510973215E-2;2.213858172E-1
2.973059392E1;-7.592524740E-1;-8.835078532E-1;6.394102809E-1
2.975075192E1;3.020405558E-1;-8.804409885E-1;-5.173557937E-2
2.977090992E1;1.149228137E0;-1.276447177E-3;-3.975039527E-1
2.979106792E1;8.852713734E-1;-4.920116222E-1;7.356963810E-1
2.981122592E1;5.654982591E-1;1.345397544E-1;8.598929957E-1
2.983138392E1;-1.273567423E-2;6.140734184E-1;7.292328689E-1
2.985154292E1;7.674368218E-1;8.402776337E-1;1.746313347E0
2.987170092E1;-1.761548267E-1;7.328309530E-1;1.339748257E0
2.989185892E1;-3.614748716E-2;3.517316562E-1;1.233480667E0
2.991201692E1;-5.083806100E-1;1.038290083E-1;5.633546698E-1
2.993217492E1;4.457364652E-1;3.500406414E-1;1.072575525E0
2.995233292E1;1.028548622E-1;-3.650241315E-1;1.046905371E0
2.997249092E1;-1.163066742E-1;-1.486141194E0;1.190808856E-1
2.999264892E1;1.047222290E0;-1.330138650E0;-4.667267999E-1
3.001280692E1;1.300036014E0;-2.941751736E-1;3.090358722E-1
3.003296492E1;7.755365311E-1;8.647026229E-1;2.224467945E-1
3.005312392E1;3.189258528E-1;1.131373664E0;2.130517808E-1
3.007328192E1;5.629535508E-1;1.484223892E0;-4.773988456E-2
3.009343992E1;1.107750766E0;1.046524717E0;5.714542329E-1
3.011359792E1;1.140413459E0;-9.204043686E-2;-1.616746357E-1
3.013375592E1;8.815621921E-1;-1.374682739E0;6.628432900E-2
3.015391392E1;6.704668897E-1;-8.324932355E-1;3.921669066E-1
3.017407192E1;5.434454852E-1;-5.777698106E-1;5.083452344E-1
3.019422992E1;4.653759469E-1;-1.106668593E0;-1.107936269E-1
3.021438792E1;8.767568041E-1;-2.369398202E0;8.969102561E-2
3.023454592E1;3.899809250E-1;-2.678662115E0;-1.126706416E0
3.025470492E1;1.317185167E0;-1.700458020E0;-5.283953369E-1
3.027486292E1;3.965257135E-1;-1.270770115E0;2.034848589E-1
3.029502092E1;3.620196860E-1;8.857093298E-1;1.764422466E0
3.031517892E1;-1.985889852E-2;1.631587175E0;2.462425941E0
3.033533692E1;3.323678707E-1;2.759689906E0;1.266137366E0
3.035549492E1;-2.979385878E-1;2.342118017E0;5.362689051E-1
3.037565292E1;-1.630494623E-1;2.011724605E0;6.490605256E-1
3.039581092E1;-3.742701875E-1;-8.368400556E-1;7.364916024E-1
3.041596892E1;-4.639742231E-1;-1.742476112E0;4.541131863E-1
3.043612692E1;-6.116118868E-1;-2.079022549E0;-4.030365881E-1
3.045628492E1;-1.117338592E-1;-2.215003057E0;2.677176923E-1
3.047644292E1;6.305973575E-1;-1.492882449E0;2.386298409E-1
3.049660192E1;9.398557162E-1;7.653654456E-1;9.615010853E-1
3.051675992E1;3.323384884E-1;3.215160524E0;1.110440924E0
3.053691792E1;9.605981290E-1;3.673572875E0;1.158293367E0
3.055707642E1;1.432259394E-1;4.353778887E0;-1.045906082E-1
3.057723442E1;3.522903576E-2;2.091049687E0;-2.836298079E0
3.059739242E1;-2.434973556E-1;-7.846460545E-1;-8.304551885E-1
3.061755042E1;-5.441357490E-1;4.253896165E-1;-1.487428751E0
3.063770842E1;-1.106793138E0;-2.742870390E-1;-4.561576653E-1
3.065786642E1;-4.803657228E-1;-2.408877432E-2;2.584147722E-2
3.067802442E1;-1.529931577E0;1.003769876E0;9.362058842E-1
3.069818242E1;6.324012235E-1;8.767432094E-1;-4.422217038E-1
3.071834042E1;3.592178464E-1;-8.573778158E-1;-4.297887692E-1
3.073849942E1;1.132237882E0;-2.745823234E-1;-2.896475284E-1
3.075865742E1;6.985544287E-1;-1.226751691E-1;-3.299993098E-1
3.077881542E1;8.743398575E-1;1.322141998E0;-5.258813265E-1
3.079897342E1;2.858509313E-1;2.236703829E0;2.422293869E-1
3.081913142E1;-1.693830201E0;2.331178461E0;-2.642438614E-1
3.083928942E1;-2.189234085E-1;1.155944833E0;-1.251624869E0
3.085944742E1;-5.829450350E-1;2.973455340E-1;2.941406751E-1
3.087960542E1;-1.008330851E0;1.274231667E0;-1.516930000E-1
3.089976342E1;2.323215723E-1;1.902169418E0;-5.158985214E-1
3.091992142E1;-3.943658982E-1;9.463356006E-1;5.669942692E-2
3.094007942E1;-3.038224947E-1;2.432196128E-1;-6.469020259E-1
3.096023742E1;5.058323935E-1;1.195849156E-1;-8.969884627E-1
3.098039642E1;1.997457106E-1;-7.875831109E-1;-3.166008537E-1
3.100055442E1;-3.212445661E-2;-1.130218838E0;-1.127590954E0
3.102071242E1;1.098266875E0;-1.066376014E0;-1.112454120E0
3.104087042E1;1.315562126E0;-9.836490226E-1;1.393789978E0
3.106102842E1;-6.014312996E-1;-1.395151502E0;5.696319482E-1
3.108118642E1;-4.182049964E-1;-6.514458972E-1;-1.340785260E0
3.110134442E1;-5.991027921E-1;6.986311734E-2;-8.605034450E-1
3.112150242E1;5.261763185E-2;-3.648533928E-1;-2.556363215E-1
3.114166042E1;-8.989980045E-1;-2.818418171E0;-9.040812814E-1
3.116181842E1;-2.884305766E-1;-3.461365725E0;-1.335316213E0
3.118197642E1;-8.641950846E-2;-2.572094271E0;7.947918507E-1
3.120213442E1;3.705601291E0;1.145266063E0;1.522851622E0
3.122229242E1;3.558627141E-1;-2.487078094E-1;1.021652416E0
3.124245042E1;-1.890912066E0;-3.422387016E-1;-6.900705573E-1
3.126260942E1;-6.031870723E-1;1.504350593E0;-7.967252326E-1
3.128276742E1;3.810460871E-1;7.045187348E-1;-1.085054945E0
3.130292542E1;-1.176682568E0;8.541261792E-1;3.721508642E-1
3.132308342E1;-2.414859134E-1;1.092270409E0;6.538707376E-1
3.134324142E1;-9.519331402E-1;1.019234592E0;3.291213503E-1
3.136339942E1;-8.447045606E-1;8.802246416E-1;8.914018866E-1
3.138355742E1;-2.457727996E-1;3.165624082E-1;1.695133984E0
3.140371542E1;1.606148279E-1;-1.500471550E-1;2.528590402E-1
3.142387342E1;-1.093022653E0;-1.945713633E-1;2.181429514E-1
3.144403142E1;-1.355156547E-1;9.230478948E-1;1.112901140E0
3.146418942E1;6.863949975E-1;1.302923369E-1;5.375275183E-1
3.148434742E1;-4.792006651E-1;-1.035561188E0;-1.552588807E0
3.150450542E1;-6.972316423E-1;-2.133781139E0;-1.579176535E0
3.152466342E1;1.359144933E0;-8.331767750E-1;-8.183917978E-1
3.154482096E1;1.243276507E0;-1.269991266E0;2.836341056E-1
3.156497896E1;-1.073241815E-1;-3.218132079E-2;-6.234573224E-1
3.158513796E1;4.512278777E-1;7.695403576E-1;-9.392326954E-1
3.160529596E1;5.413568598E-1;2.681077015E-1;-4.821646187E-1
3.162545396E1;6.084349483E-1;7.840519774E-1;4.537050506E-1
3.164561196E1;-2.429664284E-2;5.699585152E-1;-1.295883322E-1
3.166576996E1;3.870008916E-1;-9.520787358E-2;-1.020396434E0
3.168592796E1;7.288969463E-1;-1.139045795E0;-8.621494362E-1
3.170608596E1;2.046496242E-1;-1.221840615E0;2.596412256E-1
3.172624396E1;5.491734177E-2;-4.421255171E-2;-1.142744744E-1
3.174640196E1;8.656703371E-1;-4.594554949E-1;-1.291912770E0
3.176655996E1;9.865401784E-1;-2.484943861E0;-1.018285297E0
3.178671796E1;2.652492902E-1;-3.168405018E0;-1.048115452E0
3.180687596E1;4.326042035E-1;-8.383217400E-1;-1.739257512E0
3.182703396E1;-3.421683888E-1;-5.542739439E-1;5.624261320E-1
3.184719196E1;5.953072183E-1;-1.057626826E0;3.033146641E-1
3.186734996E1;1.645742700E-1;-2.830911916E-1;-1.898415506E-1
3.188750796E1;-1.768013826E-1;-9.771983743E-2;1.945830285E0
3.190766596E1;-5.566834353E-1;4.416916537E-1;1.924887021E0
3.192782496E1;-7.008382049E-1;5.587458944E-1;1.349627127E0
3.194798296E1;-4.547340144E-1;2.128138576E0;1.560545551E0
3.196814096E1;-1.068772496E0;1.730216839E0;5.512740299E-1
3.198829896E1;-1.461456442E0;1.823931334E0;4.200198260E-1
3.200845696E1;-1.297539692E0;2.440897955E0;-1.857343786E0
3.202861496E1;-1.120150810E0;4.525978804E-2;8.813820979E-1
3.204877296E1;-1.809365335E-1;3.958465594E-1;-7.771125019E-1
3.206893096E1;-3.262117758E-2;2.619078988E-1;-1.001591789E0
3.208908896E1;3.275753465E-1;2.133725005E-1;4.713699277E-1
3.210924696E1;2.887431103E-1;1.961729157E0;-1.000015672E-1
3.212940496E1;4.233106390E-2;1.707632554E0;-3.580986893E-1
3.214956296E1;7.292249751E-1;-1.487749178E0;-2.316014292E0
3.216972096E1;7.789602220E-1;-3.299877323E0;-2.289138150E-1
3.218987896E1;-1.629144062E0;2.766541674E0;-7.240326476E-1
3.221003696E1;5.957698792E-1;-1.149889457E0;-2.243540393E0
3.223019496E1;-2.083677225E-1;-3.936170161E-1;6.779963493E-2
3.225035296E1;-3.819240466E-1;-2.291582286E-2;6.790592270E-1
3.227051096E1;4.053664112E-1;1.135052147E0;-5.692673743E-1
3.229066896E1;-4.754113770E-1;1.513668131E0;-1.718732031E-1
3.231082696E1;-1.373196523E0;7.809810197E-1;-9.093379283E-1
3.233098496E1;-4.473058578E-1;2.576750994E-2;-9.947210178E-1
3.235114296E1;2.363706230E-1;1.891347976E0;-4.269459991E-1
3.237130196E1;-1.364592783E0;1.869829053E0;-1.207019531E0
3.239145996E1;1.101073100E-1;1.201598724E0;-9.234180236E-1
3.241161796E1;2.382838319E-1;7.840233260E-1;8.397632249E-1
3.243177596E1;-7.473772176E-1;4.791711366E-1;-2.117569149E-1
3.245193396E1;2.924169159E-1;4.119269872E-1;-4.690914139E-1
3.247209196E1;1.730888392E-1;-6.543186343E-1;4.987742195E-1
3.249224996E1;2.641991302E-2;-9.855154538E-1;7.114026618E-1
3.251240796E1;-8.553890316E-1;-2.091588800E0;1.356343532E-1
3.253256596E1;-3.044542864E-2;-2.244651949E0;5.288221836E-3
3.255272342E1;4.728175521E-1;-2.339858653E0;3.270208843E-1
3.257288142E1;8.510914743E-3;-2.422086877E0;-4.071796328E-2
3.259303942E1;-4.917312482E-1;-1.978301920E0;4.525372155E-1
3.261319742E1;-3.921885413E-1;-4.333389062E-1;1.615432488E0
3.263335542E1;-6.719690394E-1;7.932180727E-1;8.725390613E-1
3.265351342E1;-2.989269134E-1;1.018473285E0;-5.344013044E-1
3.267367142E1;3.317096204E-2;-6.421154952E-1;-4.406356466E-1
3.269382942E1;1.529743004E0;-1.779722291E0;-2.684623352E-1
3.271398742E1;1.478367613E0;-7.991793090E-1;-3.498340885E-1
3.273414542E1;-7.392924187E-1;6.489690167E-1;-1.489578187E-1
3.275430342E1;-2.685772330E-1;1.022691466E0;6.596314144E-1
3.277446142E1;-7.981765115E-1;1.990360633E0;1.200037225E-1
3.279461942E1;-4.452336046E-1;1.871605437E0;5.813664329E-1
3.281477742E1;-8.589553946E-1;1.589705324E0;1.220675265E0
3.283493542E1;-1.100511182E0;6.980025977E-1;9.497397034E-1
3.285509342E1;-1.098971318E0;-8.806105578E-1;3.319616354E-1
3.287525142E1;-7.185103910E-1;-2.069741848E0;5.671506822E-3
3.289540942E1;1.945539679E-1;-2.870738472E0;-1.992121522E-1
3.291556742E1;1.092467460E0;-2.795031647E0;-5.151674733E-1
3.293572542E1;2.736325894E-1;-1.833324301E0;3.448877826E-1
3.295588442E1;9.835371946E-1;-2.840782017E-1;-3.012600987E-1
3.297604242E1;8.450317124E-1;6.721666753E-2;8.283165693E-2
3.299620042E1;5.763885520E-1;1.282706037E0;-4.736727074E-1
3.301635842E1;4.469434766E-1;1.327170019E0;-3.486533895E-1
3.303651642E1;7.698369576E-1;1.226456991E0;-1.263133359E0
3.305667442E1;3.538699830E-1;2.065751123E-1;5.532255381E-2
3.307683242E1;2.782929665E-1;-5.989858478E-1;-6.139719692E-1
3.309699042E1;5.373246199E-1;-1.282428879E0;-1.834063974E-1
3.311714842E1;5.222800264E-1;-1.888933076E0;3.081906572E-1
3.313730642E1;2.495692505E-1;-1.566398907E0;-8.168607044E-1
3.315746442E1;9.816807767E-1;-1.631632783E0;3.905144835E-1
3.317762242E1;-4.106905203E-1;-2.705357578E0;1.322055459E-1
3.319778042E1;2.012211093E-1;-1.915247886E0;-6.710597974E-1
3.321793842E1;4.776405548E-1;-1.766169614E0;3.629597721E-1
3.323809642E1;-3.034170634E-1;-8.935457683E-1;1.114388087E0
3.325825442E1;1.473609442E-1;1.673018206E0;1.750453176E0
3.327841242E1;3.058394187E-1;2.098938750E0;9.582580733E-1
3.329857042E1;-1.266914754E-1;6.757328922E-1;1.742690997E0
3.331872842E1;-2.219227013E-1;8.257993430E-1;1.725503983E0
3.333888642E1;-3.145431088E-1;1.908624744E0;3.612877607E-1
3.335904442E1;-6.341958801E-1;1.069588475E0;3.422463030E-2
3.337920242E1;-9.293089472E-2;6.876220357E-1;7.481278539E-2
3.339936042E1;-4.708621335E-1;6.792266035E-1;1.184062485E0
3.341951842E1;-1.432849598E-1;2.294383687E0;-5.004234266E-1
3.343967642E1;-1.941669553E-1;6.186816090E-1;3.727564895E-1
3.345983442E1;3.817452680E-1;2.255954617E0;3.673558550E-1
3.347999242E1;-1.983265914E-2;1.102098409E0;-1.200435566E0
3.350015042E1;2.452111745E-1;-8.877652109E-1;-1.408128520E0
3.352030842E1;5.298606491E-1;-9.217235005E-1;4.376523972E-2
3.354046642E1;-2.592477811E-1;8.946479684E-1;1.901631474E-2
3.356062496E1;5.270461649E-1;3.354196787E-2;-5.266538899E-1
3.358078296E1;1.944411897E-1;-9.031375408E-1;-5.987677467E-1
3.360094096E1;2.612551302E-1;-1.645616984E-1;-3.365177858E-1
3.362109896E1;1.580217339E-2;5.968732488E-1;5.523127878E-1
3.364125696E1;2.539633600E-1;5.834141278E-1;-9.428435703E-1
3.366141496E1;1.480843909E-2;1.016618548E0;3.950121617E-1
3.368157296E1;4.274145073E-1;2.744894696E0;7.009129031E-1
3.370173096E1;-5.630490797E-1;3.172942457E0;-5.028605461E-4
3.372188896E1;2.524611737E-1;2.134807910E0;-1.603275980E0
3.374204696E1;2.658342310E-1;1.255882519E-1;8.964682066E-1
3.376220496E1;-5.076777747E-1;-3.612099928E-1;7.101513577E-1
3.378236296E1;-4.917157531E-2;2.840922350E-1;-1.585598678E0
3.380252096E1;7.267816430E-1;6.151457977E-1;-2.584128718E-1
3.382267896E1;-2.807433518E-1;-3.561006957E-1;9.651191962E-1
3.384283696E1;-1.232775785E-3;-1.111556280E0;1.604591458E-1
3.386299496E1;1.953974653E-1;-5.247706479E-1;1.007161846E0
3.388315296E1;-1.217589981E0;-7.909850210E-1;2.364391816E-1
3.390331096E1;-2.892251584E-1;-4.342504871E-1;-1.186300507E0
3.392346896E1;5.529401209E-1;4.443152994E-1;3.395492747E-2
3.394362696E1;-1.019009913E0;-1.327908522E-1;-1.471884367E0
3.396378496E1;3.187774066E-2;-5.930281198E-1;-8.828079414E-1
3.398394296E1;7.170348461E-1;-7.744871020E-1;2.460720308E-1
3.400410096E1;7.685558327E-2;-1.402738264E0;-4.767318244E-1
3.402425896E1;7.163534993E-1;-1.713134199E0;7.770518370E-1
3.404441696E1;6.504036310E-1;-1.932465597E0;3.197620046E-1
3.406457496E1;2.165800638E-1;-1.402220201E0;-1.137298793E0
3.408473296E1;1.853183638E-1;-4.924238509E-1;-1.376857026E-1
3.410489096E1;1.127234493E0;7.395628524E-1;6.014679909E-2
3.412504896E1;-8.862545096E-1;8.758257812E-1;3.664637160E-1
3.414520696E1;1.048923391E0;1.363714532E0;2.488332322E0
3.416536496E1;3.203921298E0;1.772933089E0;2.018802660E0
3.418552296E1;3.699556732E-1;1.258612584E0;-2.206607625E-2
3.420568096E1;4.782294425E-1;2.370714410E0;-3.411733389E-2
3.422583896E1;-2.261340487E-1;2.941798514E0;1.142301525E0
3.424599696E1;-6.883584195E-1;2.864229936E0;1.910851364E0
3.426615496E1;-1.554308327E-1;2.373076100E0;1.570806538E0
3.428631296E1;-1.001996270E0;1.082406156E0;1.994966193E-1
3.430647096E1;-1.244748544E0;1.492584826E0;-2.534510708E-1
3.432662896E1;1.292564150E0;2.786207029E0;3.452429133E0
3.434678696E1;1.781055163E0;3.188405419E0;3.276341988E0
3.436694496E1;-1.021706649E0;5.323620880E-1;-1.058557995E0
3.438710296E1;1.044172675E0;-4.733831533E0;-2.845656255E0
3.440726096E1;-9.911587478E-1;-7.988348495E0;-3.910002701E0
3.442741896E1;2.570472254E0;-1.483372537E0;1.606871141E0
3.444757696E1;2.161899375E0;3.432231973E0;5.702836204E-1
3.446773496E1;1.728608270E0;2.992296238E0;9.795689817E-1
3.448789296E1;1.844757362E0;1.286918371E0;-6.996406952E-1
3.450805096E1;1.873893161E0;-2.405690700E-1;-1.200296549E0
3.452820896E1;7.727945524E-1;-3.244277903E0;-2.813730458E0
3.454836717E1;6.619510780E-1;-7.984318010E0;-2.514160058E0
3.456852517E1;9.272960432E-1;-1.297284549E1;4.017013764E-1
3.458868317E1;1.401383464E0;-4.714213539E0;8.862051737E-1
3.460884117E1;7.820770803E-1;2.725117659E0;1.877770011E0
3.462899917E1;-4.523449883E-1;2.146385981E0;1.064104371E0
3.464915717E1;-1.970435661E-1;-3.237736039E0;-5.652899520E-1
3.466931517E1;3.366756606E-1;-2.472230844E0;-1.773985734E0
3.468947317E1;1.305779734E0;2.424046279E0;-4.375714863E-1
3.470963117E1;3.877820796E-1;3.156728713E0;-8.224225029E-1
3.472978917E1;6.786398354E-1;3.883638775E-1;5.247630465E-1
3.474994717E1;2.076649603E-1;2.773375314E-1;-1.505916039E-1
3.477010517E1;1.237444787E-1;-1.345329131E0;3.845829948E-1
3.479026317E1;-9.801388659E-1;-4.831086516E-1;-5.755483802E-1
3.481042117E1;-4.264323212E-1;6.916408271E-1;-2.540930585E-1
3.483057917E1;3.852133977E-1;-1.233230406E-1;5.986893940E-1
3.485073717E1;6.028980736E-1;8.826196611E-1;3.405617201E-1
3.487089517E1;-3.400344840E-1;1.038083677E0;1.121706462E-1
3.489105317E1;6.066629496E-1;3.363645887E-1;3.662567246E-1
3.491121117E1;7.888930334E-1;1.313703881E0;6.674187362E-1
3.493136917E1;3.813286538E-1;1.811341109E0;-2.357772950E-1
3.495152717E1;-1.485863378E-1;3.729605573E-1;-7.075972939E-1
3.497168517E1;5.479210537E-1;1.004781445E0;1.046721403E-1
3.499184317E1;3.259030429E-1;2.533150645E0;-7.405557096E-1
3.501200117E1;6.005305726E-1;1.270818062E0;-2.970982698E-1
3.503215917E1;9.084358491E-1;9.003852564E-1;-2.153611386E-1
3.505231717E1;4.873736473E-1;9.525687325E-1;1.078086233E-1
3.507247517E1;3.264838175E-1;1.279920423E-1;-2.779099739E-1
3.509263317E1;7.051803473E-1;-2.787660062E-1;-3.435970098E-3
3.511279117E1;2.309002238E-1;-2.835162842E-1;-1.287688449E-2
3.513294917E1;-7.016677056E-3;-4.947013414E-1;-1.978699239E-1
3.515310717E1;-1.948246209E-1;-1.913641655E-1;-2.240183799E-1
3.517326517E1;-2.883313201E-1;7.947827876E-2;-9.395481527E-1
3.519342317E1;4.376325897E-1;3.348735487E-1;-9.088751212E-1
3.521358017E1;1.755505535E-1;4.072041911E-1;2.944470692E-1
3.523373817E1;-1.697300524E-3;4.357029355E-1;-5.370538938E-1
3.525389617E1;-9.315659724E-2;2.137455529E-1;1.804323573E-1
3.527405417E1;-5.427997699E-2;4.216082221E-1;1.643435973E0
3.529421217E1;-3.010005737E-1;8.411962312E-1;4.822932574E-1
3.531437017E1;1.843120580E-1;7.998301041E-1;1.114467609E0
3.533452817E1;-9.645015840E-1;-9.730638081E-1;1.842258847E0
3.535468617E1;-4.481108733E-2;-3.113947560E0;8.866638878E-1
3.537484417E1;7.980924578E-1;-3.797757211E0;1.082753627E0
3.539500217E1;1.114288392E0;-2.653810279E0;1.237007707E-2
3.541516017E1;1.328263886E0;3.793445474E-1;1.104436418E0
3.543531817E1;-2.406081732E-1;-7.580915093E-3;1.830266207E0
3.545547617E1;2.479115649E-1;-3.088002294E-1;-2.011445108E-1
3.547563417E1;1.097255014E0;3.576958162E-1;-5.286137304E-1
3.549579217E1;-1.122256100E-2;1.538134051E0;1.261042687E-1
3.551595017E1;-1.174952669E-1;9.562641728E-1;-1.001242125E-1
3.553610817E1;-1.044088109E0;7.430320054E-1;-1.983445716E-1
3.555626567E1;-4.343919166E-1;3.850911909E-1;7.450311685E-1
3.557642367E1;-1.242506575E0;-5.800315136E-1;7.317307994E-1
3.559658167E1;-2.628074198E-1;-1.224217508E0;9.536785340E-1
3.561673967E1;-5.005735539E-2;-1.844627554E0;-3.171383590E-2
3.563689767E1;-1.807180669E-1;-1.984442081E0;-6.599775696E-1
3.565705567E1;2.936815955E-1;-1.278931074E0;-3.887451160E-1
3.567721367E1;5.586281461E-1;-3.219319063E-1;2.185735989E-1
3.569737167E1;3.853520498E-1;2.166048414E-1;2.599240847E-1
3.571752967E1;6.704592153E-1;3.441384619E-1;5.711589485E-2
3.573768767E1;3.657124950E-1;9.330887336E-1;-4.247581172E-1
3.575784567E1;8.040199265E-1;7.695935673E-1;-4.648548138E-1
3.577800367E1;3.213693311E-1;1.117975938E-1;-4.635541007E-1
3.579816167E1;2.103353105E-2;-1.839428794E-1;-9.220284328E-1
3.581831967E1;6.137918749E-1;-4.842447656E-1;1.354329166E-1
3.583847667E1;-5.283967621E-1;-9.115125078E-1;7.736758009E-1
3.585863467E1;4.125771245E-1;1.686073869E-1;1.336845991E-1
3.587879267E1;5.090018036E-1;4.972127205E-1;1.151402131E0
3.589895067E1;-2.926542032E-1;-1.364857078E-2;2.623034629E-1
3.591910867E1;-7.939945098E-2;-1.178855978E0;-1.207360862E0
3.593926667E1;-7.316789053E-1;-4.259942771E0;-2.813934526E-1
3.595942467E1;-7.383239005E-1;-3.646870980E0;-7.884558079E-1
3.597958267E1;4.001849011E-1;-1.213004887E-1;7.434173369E-1
3.599974067E1;6.513163814E-1;2.326947416E0;1.229334991E0
3.601989867E1;8.329376969E-1;1.733789488E0;8.336156085E-1
3.604005667E1;4.094112957E-1;7.687410432E-1;2.402983439E0
3.606021467E1;8.356562868E-2;2.296972250E0;5.261454745E-1
3.608037267E1;-5.205689118E-1;1.138206135E0;8.558335662E-2
3.610053067E1;-1.469881111E0;-2.364040983E-1;2.132125792E-1
3.612068867E1;-9.651173689E-1;-1.044719097E0;-1.450121176E0
3.614084667E1;-1.272885053E0;-2.692993641E-1;7.450826240E-1
3.616100467E1;-7.605091868E-1;2.994086655E0;5.650981633E-1
3.618116267E1;-1.058557995E-2;3.226663166E0;-1.353080639E0
3.620132067E1;2.298846721E-1;3.765022159E-2;5.784837556E-1
3.622147867E1;2.435558277E-1;1.480879869E0;2.651994427E-1
3.624163667E1;-1.359629301E-1;4.998211634E-1;-1.087874472E0
3.626179367E1;2.212931389E-1;-9.139279926E-1;-1.217219341E0
3.628195167E1;2.926688578E-1;-1.228846164E0;-1.276453024E0
3.630210967E1;3.238655806E-2;4.950299549E-1;-1.104830009E0
3.632226767E1;-3.992518682E-1;1.553891712E-1;-7.021231306E-1
3.634242567E1;4.821973631E-1;-1.328744674E-1;-5.153865977E-1
3.636258367E1;7.020430237E-1;1.125490195E0;6.475919974E-1
3.638274167E1;-5.595489364E-2;1.401948305E0;-8.892445564E-1
3.640289967E1;-1.704725026E-1;1.574466310E0;-1.034088274E0
3.642305767E1;-4.999203468E-1;2.351671783E0;-2.226187027E-1
3.644321567E1;-9.133294570E-1;2.571033586E0;-1.177246825E0
3.646337367E1;-9.022535880E-1;8.592278749E-1;-1.369376975E0
3.648353167E1;-1.795399991E-1;-3.279405051E-1;-1.006186384E0
3.650368967E1;-3.353956686E-1;-1.762251980E0;4.443733330E-1
3.652384767E1;3.396172852E-1;-1.076542568E0;9.103164598E-2
3.654400567E1;4.971062281E-1;-6.604558718E-1;8.617392540E-1
3.656416379E1;-3.767116924E-1;-5.170780510E-1;5.136919284E-1
3.658432179E1;-3.312189293E-1;3.891655308E-1;2.798945189E-2
3.660447979E1;-1.812451496E0;1.101960415E-1;-2.743020956E-1
3.662463779E1;-1.332539371E0;6.279085153E-1;-1.379460499E-2
3.664479479E1;-7.055658250E-1;5.005555737E-1;8.565853719E-1
3.666495279E1;-7.585361901E-1;-2.174345613E-1;7.353176276E-1
3.668511079E1;5.200890016E-2;-1.037242262E0;6.460190964E-1
3.670526879E1;-3.870456228E-1;-1.664216977E0;-3.979859094E-1
3.672542679E1;-5.695757053E-1;-1.454077987E0;-6.206491971E-1
3.674558479E1;4.951671818E-1;-8.932820588E-1;7.401142448E-2
3.676574279E1;1.001721962E0;-7.676955611E-1;8.208790572E-1
3.678590079E1;4.924612731E-1;-1.259957444E0;7.758683605E-1
3.680605879E1;7.758017754E-1;-6.384218091E-1;-1.547377914E-2
3.682621679E1;-9.102892703E-1;-8.000020123E-1;-7.694599584E-1
3.684637479E1;-1.858398989E-1;-7.013267398E-1;-5.235770850E-1
3.686653279E1;2.384966706E-1;-1.571102407E0;2.466238618E-1
3.688669079E1;-4.615352764E-1;-1.450298932E0;1.871899845E-1
3.690684879E1;8.510537598E-1;-7.690567929E-1;1.403370056E0
3.692700679E1;6.741428880E-1;-1.531970501E-3;3.363584492E-1
3.694716479E1;-4.003571746E-1;8.983194351E-1;1.185917661E-1
3.696732179E1;-2.429841893E-1;1.932590727E0;-1.243853335E-1
3.698747979E1;-2.523949357E-1;1.998735015E0;7.795259401E-1
3.700763779E1;4.597952181E-1;1.014924610E0;1.158525502E0
3.702779579E1;-6.751305741E-2;1.030478203E0;1.280782887E-1
3.704795379E1;1.092547677E-3;1.348771387E0;4.753762937E-1
3.706811179E1;9.650255676E-1;1.023802437E0;8.266413420E-2
3.708826979E1;9.208560660E-1;-4.387154210E-1;-9.242201154E-1
3.710842779E1;-8.663066603E-2;-2.476801613E0;-1.864792846E0
3.712858579E1;-4.034884683E-1;-3.709185927E0;-2.147275343E0
3.714874379E1;1.286228838E-1;-2.707461407E0;1.874485776E-1
3.716890179E1;6.619318552E-1;-1.926610780E-1;1.285062464E0
3.718905979E1;1.123698754E0;9.156365490E-1;1.051736633E0
3.720921779E1;9.206367224E-1;9.958311117E-1;5.498288906E-1
3.722937579E1;-2.004922539E-1;-2.771586066E-1;2.936229041E-1
3.724953279E1;-4.177332723E-1;-1.724708762E0;-1.061165560E0
3.726969079E1;-2.710908048E-1;-3.278614508E0;5.636867917E-1
3.728984879E1;-4.679301569E-1;-2.747439989E0;7.153363761E-1
3.731000679E1;3.278004643E-1;7.850881040E-1;1.628098726E-2
3.733016479E1;1.729583001E-1;1.522813177E0;2.176925112E0
3.735032279E1;-1.327945067E-1;1.262822580E0;1.659373436E0
3.737048079E1;3.005866456E-1;8.714140570E-1;-4.114064388E-1
3.739063879E1;-1.865801199E-1;4.802014160E-1;1.291506242E0
3.741079679E1;-4.526930438E-1;1.018918258E0;-7.748705332E-1
3.743095479E1;1.726918133E-1;4.113294017E-1;-4.658792460E-1
3.745111279E1;4.638789135E-1;2.476351962E0;4.615406120E-1
3.747127079E1;-2.034469981E-1;2.602799755E0;-2.233442252E0
3.749142879E1;-1.584312290E0;-1.043115206E0;-6.131295316E-1
3.751158679E1;-8.891645958E-1;-2.791398187E0;-7.571302271E-1
3.753174479E1;3.927019268E-1;-3.261588001E0;-6.712713204E-2
3.755190304E1;1.994137350E0;1.539325714E0;1.466464144E0
3.757206104E1;1.681313505E0;4.254494335E0;9.295540917E-1
3.759221904E1;1.070795267E0;2.972274202E0;6.660329461E-1
3.761237704E1;-3.139535268E-1;3.146176243E0;-1.064440001E0
3.763253504E1;-8.678690363E-1;2.658816665E-1;-3.860023041E0
3.765269304E1;-1.606944231E0;-1.466375851E0;-2.057708863E0
3.767285104E1;-9.052948710E-1;3.595166391E-1;9.816890359E-2
3.769300904E1;9.358826063E-1;4.718761504E-1;-6.535643435E-1
3.771316704E1;1.004941512E0;1.662492049E-1;1.006261375E0
3.773332504E1;5.772765248E-1;-2.708646637E-1;1.051110688E0
3.775348304E1;3.003676674E-1;-4.751277870E-1;-2.959591591E-1
3.777364104E1;-6.230598579E-1;3.211308378E-1;-2.599052640E-1
3.779379804E1;-7.087350158E-1;9.348323733E-1;-1.079905887E0
3.781395604E1;6.029056750E-1;2.654199119E0;-8.255286169E-1
3.783411404E1;5.946296722E-1;3.650272306E0;-1.345289955E0
3.785427204E1;2.562305447E-1;2.586299497E0;-1.184649473E0
3.787443004E1;6.522449192E-1;4.554548299E-1;-7.086743510E-1
3.789458804E1;5.272384652E-1;-2.168544590E0;-4.314474050E-1
3.791474604E1;6.558070430E-1;-3.034655222E0;5.363463807E-1
3.793490404E1;2.628243037E-1;-2.641839275E0;9.709594683E-1
3.795506204E1;-3.607173648E-1;-2.824029159E0;6.702370942E-4
3.797522004E1;-5.748094384E-1;-3.262580858E0;8.699825124E-1
3.799537804E1;-6.553440897E-1;-2.918381000E0;1.073749938E0
3.801553604E1;-7.095104297E-1;-1.871979074E0;1.748902202E-2
3.803569304E1;-1.055816089E0;-1.255280256E-2;2.278624856E-1
3.805585104E1;-5.570445009E-1;1.847061750E0;3.957397015E-1
3.807600904E1;-5.724226780E-2;2.647518091E0;8.256011224E-1
3.809616704E1;9.466688188E-1;2.208196313E0;7.466834454E-1
3.811632504E1;1.591365640E0;-8.666251874E-1;6.647569375E-1
3.813648304E1;1.189941130E0;-4.702663534E0;-6.061633050E-1
3.815664104E1;7.640406127E-1;-4.008762174E0;-6.293343589E-2
3.817679904E1;1.588275533E-1;4.078491390E-2;8.042470908E-1
3.819695704E1;-7.334678610E-1;-6.706522465E-2;6.952563067E-1
3.821711504E1;-1.616280042E-1;-1.553529185E-1;9.357182264E-2
3.823727304E1;2.888462406E-1;8.415704530E-1;7.272369218E-1
3.825743004E1;8.662525005E-1;1.485469934E0;1.473105558E0
3.827758804E1;8.662888263E-1;5.001304811E-1;9.947005525E-1
3.829774604E1;-2.834602971E-1;3.559001362E-1;7.991578205E-1
3.831790404E1;-2.838603929E-2;-1.327376425E-1;1.109339893E0
3.833806204E1;2.458613849E-1;-8.031717879E-1;2.362416919E-1
3.835822004E1;1.079138732E-1;-1.652566400E0;-2.377302468E-1
3.837837804E1;6.216745064E-2;-2.371771587E0;-5.316626148E-1
3.839853604E1;5.108984211E-1;-1.215946621E0;-3.993203902E-1
3.841869404E1;9.225997058E-1;7.837181014E-1;-1.543141606E-1
3.843885204E1;1.079568502E0;1.615923654E0;7.077436204E-1
3.845901004E1;1.033815940E0;1.265072004E0;6.365947004E-1
3.847916704E1;9.963273941E-1;5.546715546E-1;-1.313547760E-2
3.849932504E1;2.945391628E-1;-6.587151557E-1;-1.808707523E-1
3.851948304E1;-4.229232609E-2;-1.907329001E0;-4.934183161E-1
3.853964104E1;-5.304620352E-1;-2.830947585E0;-1.139397798E0
3.855979779E1;-9.246666965E-1;-3.344561160E0;6.633242235E-2
3.857995579E1;-3.534712029E-1;-1.259606611E0;7.840902767E-1
3.860011379E1;-2.659056401E-1;3.069197649E-1;8.481586571E-1
3.862027179E1;3.320323867E-1;2.272491127E-1;1.003218484E0
3.864042979E1;3.198289552E-1;3.915383309E-1;2.054125689E0
3.866058779E1;1.137640417E0;1.547750382E0;1.108586479E0
3.868074479E1;7.196905053E-1;6.980938143E-1;2.872795522E-1
3.870090279E1;4.512755325E-1;2.248482460E-1;1.354526071E0
3.872106079E1;4.923677176E-1;1.155327952E0;8.090675354E-2
3.874121879E1;-2.647081304E-1;2.143373496E0;-1.518078978E-1
3.876137679E1;-8.379285148E-1;3.006997892E0;-8.530351619E-1
3.878153479E1;-6.858871669E-2;5.267762429E-1;-6.607026243E-1
3.880169279E1;-5.159553856E-2;-2.080643982E-1;1.042733967E0
3.882185079E1;7.575161433E-1;1.692956627E0;-3.872704848E-1
3.884200879E1;4.233311042E-1;-4.283904076E-1;-3.259483953E-1
3.886216679E1;5.809582973E-1;4.737683094E-1;-1.356059357E0
3.888232379E1;6.810009411E-1;4.922344011E-1;-9.775831211E-1
3.890248179E1;4.522368148E-1;5.439641333E-1;-1.774571478E-1
3.892263979E1;-2.101986319E-2;-3.001713763E0;-4.166527069E-1
3.894279779E1;6.793286374E-1;-8.257116348E-1;8.253111918E-2
3.896295579E1;1.298557546E0;1.566357976E0;9.266550422E-2
3.898311379E1;3.228630754E-1;5.182334608E-1;-4.150014532E-1
3.900327179E1;-6.859719515E-2;6.773239195E-1;-9.689356738E-1
3.902342979E1;-5.915516979E-1;5.303196555E-1;-7.241449142E-1
3.904358779E1;-1.009021845E-1;6.730607146E-1;-6.441889179E-1
3.906374479E1;8.373560724E-1;1.868781232E0;5.527842561E-2
3.908390279E1;1.220346651E0;2.458235534E0;-6.610172045E-1
3.910406079E1;1.264751576E0;2.695029641E0;8.162701356E-1
3.912421879E1;5.817465019E-1;2.841109461E0;-1.198545892E0
3.914437679E1;3.699036330E-1;7.435845673E-2;-2.204132499E0
3.916453479E1;-1.368625316E0;-3.114390194E0;-4.568605006E-1
3.918469279E1;-1.180108452E0;-3.050370199E0;2.860972818E-1
3.920485079E1;-7.547644436E-2;-1.921824834E0;1.758900940E0
3.922500879E1;4.624144784E-1;1.874032617E-3;1.605893486E0
3.924516579E1;-5.149707144E-1;3.238316667E-1;1.059668746E0
3.926532379E1;-1.135933907E0;1.379592061E-2;-5.958455276E-1
3.928548179E1;-1.800059491E0;-5.570817769E-1;-1.368142043E0
3.930563979E1;-1.069155781E0;-1.794715136E-1;-1.721247211E0
3.932579779E1;-1.269606227E0;-1.583100893E0;2.613588452E-1
3.934595579E1;-7.768069848E-1;-3.226187788E0;2.650424742E0
3.936611379E1;9.024914235E-2;-4.247032703E0;7.079786054E-1
3.938627179E1;-7.902843784E-1;-3.047890395E0;3.658474195E-1
3.940642979E1;1.346143064E-1;-6.634379518E-1;7.015419173E-1
3.942658679E1;1.756637337E0;1.338766801E0;3.816875998E-1
3.944674479E1;1.577715462E0;2.001161025E0;6.957718849E-2
3.946690279E1;5.632187220E-1;1.836119855E0;-2.154359099E-1
3.948706079E1;5.775938094E-1;1.901684099E0;6.259198773E-1
3.950721879E1;1.007036131E0;2.022436704E0;1.863656002E0
3.952737679E1;1.200597680E0;1.287404859E0;2.168087922E0
3.954753479E1;2.364274871E-1;-1.375083858E-1;-1.890766617E-1
3.956769342E1;-1.157452684E0;-8.562399477E-1;4.170248821E-2
3.958785142E1;-1.589303912E-1;-7.905856562E-1;5.779154793E-1
3.960800842E1;-5.400010367E-1;-2.020417076E0;1.642740154E-1
3.962816642E1;5.810142843E-1;-1.780137443E0;1.645899113E-1
3.964832442E1;9.761490914E-1;-1.387053693E0;3.866120517E-1
3.966848242E1;1.220479237E0;-5.158273315E-1;1.188117675E-1
3.968864042E1;6.448239255E-1;-5.719997782E-1;-5.160789080E-1
3.970879842E1;8.903800857E-1;-5.385139436E-1;-1.126777167E0
3.972895642E1;5.949784586E-1;4.545391560E-1;-3.865560646E-1
3.974911442E1;3.338593492E-1;6.553290331E-1;-6.967742439E-1
3.976927142E1;5.519678020E-1;-1.545612055E-1;-1.123086405E-1
3.978942942E1;1.868729192E-1;-4.179045957E-1;1.033754106E-1
3.980958742E1;9.790235826E-1;-1.613667798E-1;1.079813647E0
3.982974542E1;7.387164679E-1;-2.850576103E-1;6.506759651E-1
3.984990342E1;4.967803189E-1;-9.144349462E-1;1.951158853E-1
3.987006142E1;-7.908441031E-1;-2.581323516E0;4.933518040E-1
3.989021942E1;-1.131104984E0;-3.555860823E0;1.073763825E0
3.991037742E1;-9.324332607E-1;-1.747390112E0;3.682693362E-2
3.993053442E1;8.523921874E-1;1.656822004E0;8.536839835E-1
3.995069242E1;1.177485099E0;2.077608107E0;1.234292114E0
3.997085042E1;1.022211117E0;1.095136714E0;9.313340572E-1
3.999100842E1;5.556202653E-1;-5.766915840E-1;-4.388228635E-1
4.001116642E1;5.711794138E-2;-8.872325295E-1;2.574132903E-1
4.003132442E1;-6.111422092E-1;-2.456111240E-1;4.292791843E-2
4.005148242E1;-9.122700146E-1;9.351451993E-1;-3.926627505E-1
4.007164042E1;-3.485273820E-1;3.913377714E-1;-1.795984165E-1
4.009179742E1;5.089419428E-1;1.490010297E0;8.529286695E-1
4.011195542E1;1.588197034E0;7.161786675E-1;-8.717806774E-1
4.013211342E1;1.517959695E0;1.453549984E0;1.197726113E-1
4.015227142E1;1.554296632E0;2.098152300E0;-5.294671315E-1
4.017242942E1;1.186286620E0;1.159784700E0;-1.365675688E0
4.019258742E1;-1.555242419E-2;1.597917738E0;-4.426061583E-1
4.021274542E1;3.068949142E-1;-3.187492669E-1;-1.401255995E0
4.023290242E1;-2.662930182E-1;-3.306150216E-1;4.187553656E-1
4.025306042E1;-4.613239726E-1;4.964636922E-2;-7.353557807E-1
4.027321842E1;-6.469493884E-1;-1.985485225E0;1.066794090E0
4.029337642E1;8.560502055E-1;5.613812345E-1;6.071853983E-1
4.031353442E1;7.659080672E-1;-7.407317108E-1;-9.812656975E-1
4.033369242E1;1.349990532E-1;4.188641238E-1;1.301504835E0
4.035385042E1;1.687679223E0;2.239873019E0;-4.383189797E-1
4.037400842E1;1.333285037E0;3.279969893E0;-1.128600329E0
4.039416542E1;5.304863012E-1;2.978913715E0;-2.035188897E0
4.041432342E1;-1.828409716E-1;1.881557398E0;-5.544237057E-1
4.043448142E1;1.891711673E-1;5.087785131E-1;-1.547101926E0
4.045463942E1;-6.220136449E-1;-1.742178488E0;-1.117830854E0
4.047479742E1;3.914769351E-2;-7.365223002E-1;6.056780592E-1
4.049495542E1;1.738131630E-1;-8.784424102E-1;1.254308888E-1
